Timestamp,SampleNr,AccX [mg],AccY [mg],AccZ [mg],GyrX [rad/s],GyrY [rad/s],GyrZ [rad/s],MagX [mGs],MagY [mGs],-MagZ [mGs],Battery [mV],Temperature [0.1C],Pressure[Pa]
12:14:12.219,4129,2.9296875,320.3125,-934.5703125,-0.11850785621041499,-0.05986479334340551,-0.04398229715025711,-1749,-1649,-915,3836,310,100639
12:14:12.230,4130,1.953125,323.2421875,-937.5,-0.09162978572970232,-0.05497787143782139,-0.029321531433504737,-1743,-1649,-906,3836,310,100639
12:14:12.250,4131,9.765625,324.21875,-936.5234375,-0.05742133239061345,-0.0476474885794452,-0.04153883619746505,-1743,-1649,-906,3836,310,100639
12:14:12.271,4132,5.859375,315.4296875,-937.5,-0.10018189906447451,-0.04398229715025711,-0.05497787143782139,-1743,-1649,-906,3836,310,100639
12:14:12.291,4133,12.6953125,324.21875,-958.0078125,-0.11606439525762292,-0.0476474885794452,-0.048869219055841226,-1743,-1649,-906,3836,310,100639
12:14:12.302,4134,14.6484375,326.171875,-959.9609375,-0.07452555906015788,-0.05009094953223726,-0.03787364476827696,-1743,-1649,-906,3836,310,100639
12:14:12.322,4135,15.625,316.40625,-955.078125,-0.09040805525330627,-0.06597344572538566,-0.0317649923862968,-1740,-1645,-898,3836,310,100639
12:14:12.342,4136,10.7421875,315.4296875,-946.2890625,-0.13683381335635544,-0.0867428638241182,-0.03420845333908886,-1740,-1645,-898,3836,310,100639
12:14:12.362,4137,4.8828125,331.0546875,-956.0546875,-0.13683381335635544,-0.08429940287132612,-0.026878070480712675,-1740,-1645,-898,3836,310,100639
12:14:12.373,4138,2.9296875,351.5625,-950.1953125,-0.10506882097005865,-0.07086036763096978,-0.024434609527920613,-1740,-1645,-898,3836,310,100639
12:14:12.393,4139,10.7421875,333.0078125,-940.4296875,-0.04642575810304917,-0.07452555906015788,-0.03298672286269283,-1744,-1644,-916,3836,310,100639
12:14:12.414,4140,10.7421875,319.3359375,-940.4296875,-0.07574728953655392,-0.09040805525330627,-0.051312680008633295,-1744,-1644,-916,3836,310,100639
12:14:12.434,4141,6.8359375,327.1484375,-950.1953125,-0.09651670763528641,-0.08796459430051422,-0.04398229715025711,-1744,-1644,-916,3836,310,100639
12:14:12.454,4142,3.90625,322.265625,-943.359375,-0.1075122819228507,-0.08063421144213802,-0.02809980095710871,-1744,-1644,-916,3836,310,100639
12:14:12.474,4143,5.859375,335.9375,-936.5234375,-0.09162978572970232,-0.08429940287132612,0.0024434609527920616,-1744,-1644,-916,3836,310,100639
12:14:12.484,4144,11.71875,334.9609375,-925.78125,-0.0989601685880785,-0.0830776723949301,-0.01710422666954443,-1743,-1647,-905,3836,310,100639
12:14:12.504,4145,5.859375,340.8203125,-924.8046875,-0.10262536001726659,-0.07696902001294993,-0.04642575810304917,-1743,-1647,-905,3836,310,100639
12:14:12.525,4146,0.9765625,333.0078125,-921.875,-0.12095131716320705,-0.07086036763096978,-0.04398229715025711,-1743,-1647,-905,3836,310,100639
12:14:12.545,4147,6.8359375,346.6796875,-922.8515625,-0.12461650859239513,-0.0635299847725936,-0.025656340004316647,-1743,-1647,-905,3836,310,100639
12:14:12.565,4148,6.8359375,336.9140625,-919.921875,-0.06597344572538566,-0.051312680008633295,-0.02809980095710871,-1743,-1647,-905,3836,310,100639
12:14:12.575,4149,-0.9765625,326.171875,-936.5234375,-0.06963863715457375,-0.05986479334340551,-0.03787364476827696,-1744,-1646,-917,3836,310,100639
12:14:12.616,4150,5.859375,326.171875,-944.3359375,-0.0830776723949301,-0.04276056667386108,-0.03298672286269283,-1744,-1646,-917,3836,310,100639
12:14:12.636,4151,12.6953125,327.1484375,-941.40625,-0.08796459430051422,-0.04520402762665313,-0.024434609527920613,-1744,-1646,-917,3836,310,100639
12:14:12.646,4152,5.859375,333.984375,-948.2421875,-0.0989601685880785,-0.05497787143782139,-0.021991148575128554,-1744,-1646,-917,3836,310,100639
12:14:12.667,4153,8.7890625,353.515625,-958.984375,-0.06475171524898964,-0.052534410485029326,-0.019547687622336492,-1742,-1643,-904,3836,310,100639
12:14:12.688,4154,7.8125,349.609375,-967.7734375,-0.023212879051524585,-0.06475171524898964,-0.03420845333908886,-1742,-1643,-904,3836,310,100639
12:14:12.708,4155,7.8125,317.3828125,-951.171875,-0.03787364476827696,-0.07452555906015788,-0.04276056667386108,-1742,-1643,-904,3836,310,100639
12:14:12.729,4156,6.8359375,333.0078125,-958.984375,-0.1148426647812269,-0.08063421144213802,-0.03787364476827696,-1742,-1643,-904,3836,310,100639
12:14:12.739,4157,10.7421875,349.609375,-958.984375,-0.09773843811168245,-0.0867428638241182,-0.03420845333908886,-1742,-1643,-904,3836,310,100639
12:14:12.760,4158,8.7890625,331.0546875,-950.1953125,-0.07819075048934597,-0.09162978572970232,-0.05009094953223726,-1736,-1647,-902,3836,310,100639
12:14:12.780,4159,2.9296875,323.2421875,-943.359375,-0.11362093430483088,-0.0989601685880785,-0.039095375244672985,-1736,-1647,-902,3836,310,100639
12:14:12.800,4160,5.859375,342.7734375,-942.3828125,-0.11362093430483088,-0.10262536001726659,-0.03054326190990077,-1736,-1647,-902,3836,310,100639
12:14:12.810,4161,-1.953125,342.7734375,-938.4765625,-0.04398229715025711,-0.08918632477691024,-0.01710422666954443,-1736,-1647,-902,3836,310,100639
12:14:12.831,4162,-3.90625,324.21875,-935.546875,-0.03298672286269283,-0.0952949771588904,-0.026878070480712675,-1736,-1647,-902,3836,310,100639
12:14:12.851,4163,5.859375,328.125,-922.8515625,-0.09285151620609834,-0.08918632477691024,-0.039095375244672985,-1741,-1648,-908,3836,310,100639
12:14:12.964,4164,-2.9296875,345.703125,-922.8515625,-0.10629055144645469,-0.09773843811168245,-0.04398229715025711,-1741,-1648,-908,3836,310,100639
12:14:12.975,4165,-2.9296875,337.890625,-933.59375,-0.09773843811168245,-0.08429940287132612,-0.04031710572106901,-1741,-1648,-908,3836,310,100639
12:14:12.995,4166,3.90625,340.8203125,-925.78125,-0.09162978572970232,-0.07208209810736582,-0.04153883619746505,-1741,-1648,-908,3836,310,100639
12:14:13.16,4167,-3.90625,341.796875,-917.96875,-0.1038470904936626,-0.07208209810736582,-0.05497787143782139,-1746,-1646,-914,3836,310,100639
12:14:13.37,4168,3.90625,333.0078125,-921.875,-0.07452555906015788,-0.07574728953655392,-0.051312680008633295,-1746,-1646,-914,3836,310,100639
12:14:13.58,4169,-2.9296875,318.359375,-925.78125,-0.09162978572970232,-0.06475171524898964,-0.06108652381980154,-1746,-1646,-914,3836,310,100639
12:14:13.68,4170,2.9296875,329.1015625,-937.5,-0.08429940287132612,-0.048869219055841226,-0.04642575810304917,-1746,-1646,-914,3836,310,100639
12:14:13.89,4171,6.8359375,316.40625,-922.8515625,-0.05742133239061345,-0.04276056667386108,-0.03298672286269283,-1746,-1646,-914,3836,310,100639
12:14:13.110,4172,-0.9765625,323.2421875,-936.5234375,-0.12217304763960309,-0.058643062867009474,-0.03543018381548489,-1744,-1643,-912,3836,310,100639
12:14:13.131,4173,5.859375,328.125,-955.078125,-0.16249015336067207,-0.05986479334340551,-0.03543018381548489,-1744,-1643,-912,3836,310,100639
12:14:13.141,4174,-0.9765625,336.9140625,-953.125,-0.14538592669112765,-0.058643062867009474,-0.03054326190990077,-1744,-1643,-912,3836,310,100639
12:14:13.162,4175,-4.8828125,333.0078125,-944.3359375,-0.1038470904936626,-0.06597344572538566,-0.025656340004316647,-1744,-1643,-912,3836,310,100639
12:14:13.182,4176,2.9296875,330.078125,-953.125,-0.1111774733520388,-0.07330382858376185,-0.026878070480712675,-1744,-1643,-912,3836,310,100639
12:14:13.203,4177,-2.9296875,347.65625,-950.1953125,-0.07330382858376185,-0.0635299847725936,-0.03054326190990077,-1743,-1645,-909,3884,310,100643
12:14:13.214,4178,4.8828125,328.125,-947.265625,-0.03420845333908886,-0.07452555906015788,-0.014660765716752368,-1743,-1645,-909,3884,310,100643
12:14:13.234,4179,2.9296875,318.359375,-943.359375,-0.07696902001294993,-0.07208209810736582,-0.003665191429188092,-1743,-1645,-909,3884,310,100643
12:14:13.255,4180,-0.9765625,336.9140625,-944.3359375,-0.11972958668681102,-0.08796459430051422,0.004886921905584123,-1743,-1645,-909,3884,310,100643
12:14:13.275,4181,-6.8359375,357.421875,-936.5234375,-0.11606439525762292,-0.09407324668249437,-0.013439035240356337,-1741,-1644,-915,3884,310,100643
12:14:13.306,4182,-2.9296875,351.5625,-933.59375,-0.08429940287132612,-0.09285151620609834,-0.010995574287564277,-1741,-1644,-915,3884,310,100643
12:14:13.326,4183,1.953125,357.421875,-931.640625,-0.0830776723949301,-0.08185594191853407,-0.03054326190990077,-1741,-1644,-915,3884,310,100643
12:14:13.346,4184,-0.9765625,356.4453125,-926.7578125,-0.07696902001294993,-0.06597344572538566,-0.03665191429188092,-1741,-1644,-915,3884,310,100643
12:14:13.367,4185,-0.0,333.984375,-929.6875,-0.06597344572538566,-0.07086036763096978,-0.04153883619746505,-1741,-1644,-915,3884,310,100643
12:14:13.377,4186,-0.0,333.984375,-935.546875,-0.10506882097005865,-0.07574728953655392,-0.029321531433504737,-1747,-1643,-912,3884,310,100643
12:14:13.397,4187,-9.765625,335.9375,-938.4765625,-0.10629055144645469,-0.06963863715457375,-0.023212879051524585,-1747,-1643,-912,3884,310,100643
12:14:13.418,4188,-4.8828125,342.7734375,-942.3828125,-0.05986479334340551,-0.05742133239061345,-0.007330382858376184,-1747,-1643,-912,3884,310,100643
12:14:13.439,4189,-6.8359375,333.0078125,-943.359375,-0.058643062867009474,-0.08063421144213802,-0.0012217304763960308,-1747,-1643,-912,3884,310,100643
12:14:13.449,4190,-5.859375,332.03125,-940.4296875,-0.06841690667817772,-0.07574728953655392,-0.013439035240356337,-1747,-1643,-912,3884,310,100643
12:14:13.470,4191,-1.953125,345.703125,-937.5,-0.10018189906447451,-0.08063421144213802,-0.014660765716752368,-1745,-1642,-903,3884,310,100643
12:14:13.490,4192,4.8828125,357.421875,-933.59375,-0.11850785621041499,-0.07941248096574201,-0.020769418098732523,-1745,-1642,-903,3884,310,100643
12:14:13.511,4193,-6.8359375,360.3515625,-925.78125,-0.08918632477691024,-0.06597344572538566,-0.02809980095710871,-1745,-1642,-903,3884,310,100643
12:14:13.532,4194,-10.7421875,352.5390625,-920.8984375,-0.08185594191853407,-0.08552113334772216,-0.0317649923862968,-1745,-1642,-903,3884,310,100643
12:14:13.542,4195,1.953125,344.7265625,-914.0625,-0.09040805525330627,-0.0671951762017817,-0.05009094953223726,-1745,-1642,-903,3884,310,100643
12:14:13.562,4196,-3.90625,329.1015625,-906.25,-0.13683381335635544,-0.06841690667817772,-0.025656340004316647,-1746,-1642,-913,3884,310,100643
12:14:13.583,4197,-6.8359375,326.171875,-895.5078125,-0.1661553447898602,-0.04642575810304917,-0.021991148575128554,-1746,-1642,-913,3884,310,100643
12:14:13.604,4198,-8.7890625,339.84375,-898.4375,-0.13805554383275148,-0.025656340004316647,-0.025656340004316647,-1746,-1642,-913,3884,310,100643
12:14:13.614,4199,-9.765625,341.796875,-907.2265625,-0.07086036763096978,0.0012217304763960308,-0.014660765716752368,-1746,-1642,-913,3884,310,100643
12:14:13.636,4200,2.9296875,313.4765625,-901.3671875,-0.024434609527920613,-0.004886921905584123,-0.007330382858376184,-1742,-1638,-909,3884,310,100643
12:14:13.656,4201,3.90625,313.4765625,-895.5078125,-0.07941248096574201,-0.006108652381980153,0.0012217304763960308,-1742,-1638,-909,3884,310,100643
12:14:13.677,4202,0.9765625,315.4296875,-884.765625,-0.13683381335635544,0.008552113334772215,0.003665191429188092,-1742,-1638,-909,3884,310,100643
12:14:13.687,4203,2.9296875,339.84375,-891.6015625,-0.1343903524035634,0.025656340004316647,0.0,-1742,-1638,-909,3884,310,100643
12:14:13.707,4204,10.7421875,344.7265625,-895.5078125,-0.03420845333908886,0.0671951762017817,0.010995574287564277,-1742,-1638,-909,3884,310,100643
12:14:13.727,4205,10.7421875,322.265625,-885.7421875,0.003665191429188092,0.09162978572970232,0.021991148575128554,-1740,-1640,-919,3884,310,100643
12:14:13.748,4206,7.8125,315.4296875,-877.9296875,-0.048869219055841226,0.08918632477691024,0.026878070480712675,-1740,-1640,-919,3884,310,100643
12:14:13.769,4207,17.578125,353.515625,-861.328125,-0.07574728953655392,0.11606439525762292,0.03420845333908886,-1740,-1640,-919,3884,310,100643
12:14:13.779,4208,22.4609375,326.171875,-827.1484375,-0.019547687622336492,0.14905111812031577,0.051312680008633295,-1740,-1640,-919,3884,310,100643
12:14:13.801,4209,12.6953125,318.359375,-817.3828125,-0.05375614096142535,0.19303341527057283,0.04398229715025711,-1740,-1640,-919,3884,310,100643
12:14:13.821,4210,30.2734375,331.0546875,-815.4296875,-0.1075122819228507,0.22846359908605776,0.039095375244672985,-1734,-1639,-921,3884,310,100643
12:14:13.832,4211,37.109375,348.6328125,-800.78125,-0.1075122819228507,0.2663372438543347,0.0635299847725936,-1734,-1639,-921,3884,310,100643
12:14:13.852,4212,57.6171875,362.3046875,-779.296875,-0.11972958668681102,0.3298672286269283,0.04642575810304917,-1734,-1639,-921,3884,310,100643
12:14:13.873,4213,62.5,351.5625,-778.3203125,-0.10140362954087055,0.3787364476827696,0.014660765716752368,-1734,-1639,-921,3884,310,100643
12:14:13.894,4214,47.8515625,341.796875,-793.9453125,-0.09407324668249437,0.4398229715025711,-0.0024434609527920616,-1722,-1636,-915,3884,310,100643
12:14:13.914,4215,90.8203125,338.8671875,-793.9453125,-0.023212879051524585,0.5033529562751646,0.009773843811168246,-1722,-1636,-915,3884,310,100643
12:14:13.925,4216,125.9765625,318.359375,-783.203125,-0.0024434609527920616,0.5412266010434416,0.007330382858376184,-1722,-1636,-915,3884,310,100643
12:14:13.945,4217,100.5859375,294.921875,-807.6171875,-0.09040805525330627,0.5791002458117186,-0.026878070480712675,-1722,-1636,-915,3884,310,100643
12:14:13.965,4218,110.3515625,307.6171875,-819.3359375,-0.15638150097869194,0.6255260039147678,-0.009773843811168246,-1722,-1636,-915,3884,310,100643
12:14:13.996,4219,140.625,311.5234375,-808.59375,-0.12095131716320705,0.675616953447005,0.020769418098732523,-1701,-1640,-917,3884,310,100643
12:14:14.17,4220,181.640625,313.4765625,-776.3671875,0.03787364476827696,0.7208209810736581,0.05375614096142535,-1701,-1640,-917,3884,310,100643
12:14:14.37,4221,193.359375,287.109375,-767.578125,0.10262536001726659,0.7623598172711232,0.05009094953223726,-1701,-1640,-917,3884,310,100643
12:14:14.57,4222,166.9921875,268.5546875,-783.203125,0.03054326190990077,0.8307767239493008,0.04520402762665313,-1701,-1640,-917,3884,310,100643
12:14:14.78,4223,209.9609375,285.15625,-805.6640625,0.0024434609527920616,0.8943067087218944,0.05497787143782139,-1701,-1640,-917,3884,310,100643
12:14:14.89,4224,287.109375,308.59375,-761.71875,-0.08552113334772216,0.9407324668249436,0.09651670763528641,-1676,-1640,-907,3884,310,100643
12:14:14.109,4225,305.6640625,312.5,-759.765625,-0.1111774733520388,0.9407324668249436,0.10873401239924674,-1676,-1640,-907,3884,310,100643
12:14:14.130,4226,290.0390625,310.546875,-784.1796875,-0.1233947781159991,0.992045146833577,0.07819075048934597,-1676,-1640,-907,3884,310,100643
12:14:14.150,4227,291.9921875,320.3125,-789.0625,-0.1429424657383356,1.0592403230353586,0.07208209810736582,-1676,-1640,-907,3890,310,100639
12:14:14.160,4228,339.84375,333.0078125,-765.625,-0.08063421144213802,1.1093312725675961,0.14538592669112765,-1629,-1639,-909,3890,310,100639
12:14:14.181,4229,427.734375,313.4765625,-706.0546875,-0.11239920382843484,1.1374310735247046,0.1734857276482364,-1629,-1639,-909,3890,310,100639
12:14:14.201,4230,458.0078125,313.4765625,-714.84375,-0.2932153143350474,1.1716395268637936,0.13194689145077132,-1629,-1639,-909,3890,310,100639
12:14:14.221,4231,427.734375,382.8125,-813.4765625,-0.36163222101322506,1.2596041211643076,0.06108652381980154,-1629,-1639,-909,3890,310,100639
12:14:14.242,4232,424.8046875,369.140625,-845.703125,0.0024434609527920616,1.3695598640399507,0.020769418098732523,-1629,-1639,-909,3890,310,100639
12:14:14.253,4233,520.5078125,308.59375,-770.5078125,0.06230825429619757,1.3720033249927428,0.0317649923862968,-1584,-1637,-920,3890,310,100639
12:14:14.294,4234,573.2421875,311.5234375,-758.7890625,-0.1270599695451872,1.2999212268853766,0.06841690667817772,-1584,-1637,-920,3890,310,100639
12:14:14.315,4235,550.78125,375.0,-823.2421875,-0.19914206765255302,1.2864821916450204,0.1038470904936626,-1584,-1637,-920,3890,310,100639
12:14:14.325,4236,543.9453125,397.4609375,-871.09375,0.23212879051524585,1.3720033249927428,0.05986479334340551,-1584,-1637,-920,3890,310,100639
12:14:14.345,4237,520.5078125,266.6015625,-807.6171875,0.5057964172279568,1.4269811964305639,-0.03298672286269283,-1584,-1637,-920,3890,310,100639
12:14:14.366,4238,632.8125,253.90625,-688.4765625,0.3262020371977402,1.393994473567871,0.009773843811168246,-1536,-1644,-919,3890,310,100639
12:14:14.387,4239,679.6875,309.5703125,-676.7578125,0.03420845333908886,1.341460063082842,0.13805554383275148,-1536,-1644,-919,3890,310,100639
12:14:14.397,4240,711.9140625,404.296875,-779.296875,0.3017674276698196,1.4636331107224447,0.1148426647812269,-1536,-1644,-919,3890,310,100639
12:14:14.418,4241,682.6171875,306.640625,-804.6875,0.7171557896444701,1.5638150097869192,-0.07208209810736582,-1536,-1644,-919,3890,310,100639
12:14:14.439,4242,689.453125,226.5625,-676.7578125,0.7464773210779747,1.5650367402633154,-0.16982053621904827,-1475,-1650,-950,3890,310,100639
12:14:14.459,4243,758.7890625,243.1640625,-553.7109375,0.4960225734167885,1.512502329778286,-0.06841690667817772,-1475,-1650,-950,3890,310,100639
12:14:14.480,4244,829.1015625,311.5234375,-704.1015625,0.36041049053682905,1.5088371383490977,0.10506882097005865,-1475,-1650,-950,3890,310,100639
12:14:14.490,4245,821.2890625,315.4296875,-778.3203125,0.5241223743738972,1.5748105840744835,0.024434609527920613,-1475,-1650,-950,3890,310,100639
12:14:14.511,4246,793.9453125,275.390625,-694.3359375,0.678060414399797,1.6395622993234733,-0.1307251609743753,-1475,-1650,-950,3890,310,100639
12:14:14.532,4247,863.28125,252.9296875,-585.9375,0.5962044724812631,1.6346753774178893,-0.1954768762233649,-1413,-1664,-980,3890,310,100639
12:14:14.563,4248,909.1796875,236.328125,-563.4765625,0.36896260387160124,1.5601498183577314,-0.15760323145508798,-1413,-1664,-980,3890,310,100639
12:14:14.583,4249,963.8671875,267.578125,-617.1875,0.1356120828799594,1.5222761735894546,-0.17470745812463243,-1413,-1664,-980,3890,310,100639
12:14:14.604,4250,943.359375,312.5,-669.921875,0.13194689145077132,1.5552628964521473,-0.23701571242082997,-1413,-1664,-980,3890,310,100639
12:14:14.625,4251,916.9921875,300.78125,-631.8359375,0.27611108766550296,1.629788455512305,-0.3078760800517997,-1413,-1664,-980,3890,310,100639
12:14:14.635,4252,885.7421875,207.03125,-683.59375,0.37629298672997746,1.6090190374135724,-0.40072759625789806,-1365,-1681,-1034,3890,310,100639
12:14:14.655,4253,952.1484375,168.9453125,-517.578125,0.10262536001726659,1.5234979040658503,-0.3787364476827696,-1365,-1681,-1034,3890,310,100639
12:14:14.675,4254,997.0703125,207.03125,-443.359375,-0.41294490102185843,1.3671164030871585,-0.1710422666954443,-1365,-1681,-1034,3890,310,100639
12:14:14.696,4255,1016.6015625,254.8828125,-467.7734375,-0.6976081020221336,1.3219123754605053,-0.003665191429188092,-1365,-1681,-1034,3890,310,100639
12:14:14.717,4256,897.4609375,300.78125,-684.5703125,-0.5302310267558774,1.3219123754605053,-0.006108652381980153,-1365,-1681,-1034,3890,310,100639
12:14:14.727,4257,959.9609375,320.3125,-603.515625,-0.2419026343264141,1.3805554383275147,-0.1038470904936626,-1319,-1674,-1071,3890,310,100639
12:14:14.747,4258,983.3984375,240.234375,-517.578125,-0.06597344572538566,1.3316862192716736,-0.11606439525762292,-1319,-1674,-1071,3890,310,100639
12:14:14.789,4259,1016.6015625,237.3046875,-400.390625,-0.2150245638457014,1.2070697106792785,-0.013439035240356337,-1319,-1674,-1071,3890,310,100639
12:14:14.809,4260,1046.875,262.6953125,-323.2421875,-0.476474885794452,1.070235897322923,0.13316862192716736,-1319,-1674,-1071,3890,310,100639
12:14:14.820,4261,1081.0546875,279.296875,-391.6015625,-0.4838052686528282,1.0580185925589627,0.12950343049797927,-1290,-1666,-1114,3890,310,100639
12:14:14.841,4262,1058.59375,272.4609375,-388.671875,-0.3824016391119576,1.1239920382843482,0.06108652381980154,-1290,-1666,-1114,3890,310,100639
12:14:14.862,4263,1083.0078125,306.640625,-352.5390625,-0.2687807048071268,1.1728612573401895,-0.020769418098732523,-1290,-1666,-1114,3890,310,100639
12:14:14.872,4264,1058.59375,303.7109375,-308.59375,-0.0671951762017817,1.1423179954302887,-0.04520402762665313,-1290,-1666,-1114,3890,310,100639
12:14:14.893,4265,1049.8046875,277.34375,-287.109375,0.06108652381980154,1.0885618544688633,-0.06597344572538566,-1290,-1666,-1114,3890,310,100639
12:14:14.914,4266,1048.828125,265.625,-289.0625,0.03787364476827696,1.0641272449409427,-0.09162978572970232,-1269,-1670,-1158,3890,310,100639
12:14:14.934,4267,1048.828125,256.8359375,-306.640625,-0.014660765716752368,1.0348057135074382,-0.11850785621041499,-1269,-1670,-1158,3890,310,100639
12:14:14.955,4268,1036.1328125,282.2265625,-313.4765625,-0.012217304763960306,1.0164797563614976,-0.1478293876439197,-1269,-1670,-1158,3890,310,100639
12:14:14.985,4269,1012.6953125,291.9921875,-310.546875,0.09407324668249437,1.0140362954087057,-0.18325957145940464,-1269,-1670,-1158,3890,310,100639
12:14:15.6,4270,1000.9765625,267.578125,-316.40625,0.22724186860966175,0.9590584239708841,-0.17715091907742447,-1269,-1670,-1158,3890,310,100639
12:14:15.26,4271,988.28125,239.2578125,-323.2421875,0.2663372438543347,0.8576547944300136,-0.15271630954950383,-1246,-1662,-1206,3890,310,100639
12:14:15.37,4272,962.890625,230.46875,-331.0546875,0.17470745812463243,0.6902777191637574,-0.0635299847725936,-1246,-1662,-1206,3890,310,100639
12:14:15.57,4273,944.3359375,246.09375,-340.8203125,0.0671951762017817,0.5803219762881145,0.0012217304763960308,-1246,-1662,-1206,3890,310,100639
12:14:15.77,4274,937.5,257.8125,-336.9140625,-0.04398229715025711,0.4850269991292242,0.058643062867009474,-1246,-1662,-1206,3890,310,100639
12:14:15.98,4275,967.7734375,300.78125,-312.5,-0.10629055144645469,0.38362336958835364,0.06108652381980154,-1235,-1665,-1240,3890,310,100639
12:14:15.128,4276,1001.953125,304.6875,-289.0625,-0.012217304763960306,0.27611108766550296,0.03298672286269283,-1235,-1665,-1240,3890,310,100639
12:14:15.149,4277,1045.8984375,295.8984375,-278.3203125,0.06475171524898964,0.18081611050661253,-0.026878070480712675,-1235,-1665,-1240,3878,310,100643
12:14:15.169,4278,1054.6875,220.703125,-252.9296875,0.03787364476827696,0.07086036763096978,-0.0952949771588904,-1235,-1665,-1240,3878,310,100643
12:14:15.189,4279,1024.4140625,204.1015625,-204.1015625,-0.1942551457469689,-0.010995574287564277,-0.15638150097869194,-1235,-1665,-1240,3878,310,100643
12:14:15.210,4280,999.0234375,238.28125,-182.6171875,-0.3652974124424132,-0.08796459430051422,-0.15882496193148402,-1233,-1667,-1265,3878,310,100643
12:14:15.220,4281,974.609375,255.859375,-170.8984375,-0.2895501229058593,-0.0989601685880785,-0.16004669240788005,-1233,-1667,-1265,3878,310,100643
12:14:15.241,4282,975.5859375,267.578125,-126.953125,-0.1075122819228507,-0.07941248096574201,-0.15760323145508798,-1233,-1667,-1265,3878,310,100643
12:14:15.261,4283,980.46875,247.0703125,-101.5625,0.08918632477691024,-0.0867428638241182,-0.1307251609743753,-1233,-1667,-1265,3878,310,100643
12:14:15.282,4284,984.375,229.4921875,-83.984375,0.20891591146372127,-0.06597344572538566,-0.09407324668249437,-1233,-1667,-1265,3878,310,100643
12:14:15.302,4285,970.703125,224.609375,-70.3125,0.238237442897226,-0.06841690667817772,-0.058643062867009474,-1235,-1666,-1255,3878,310,100643
12:14:15.312,4286,962.890625,241.2109375,-60.546875,0.2528982086139784,-0.0476474885794452,-0.003665191429188092,-1235,-1666,-1255,3878,310,100643
12:14:15.333,4287,962.890625,271.484375,-54.6875,0.31887165433936404,-0.02809980095710871,0.03054326190990077,-1235,-1666,-1255,3878,310,100643
12:14:15.354,4288,966.796875,279.296875,-55.6640625,0.42638393626221477,0.023212879051524585,0.0476474885794452,-1235,-1666,-1255,3878,310,100643
12:14:15.374,4289,969.7265625,297.8515625,-45.8984375,0.5338962181850655,0.03298672286269283,0.03298672286269283,-1232,-1663,-1258,3878,310,100643
12:14:15.405,4290,965.8203125,306.640625,-64.453125,0.6194173515327875,0.05986479334340551,0.02809980095710871,-1232,-1663,-1258,3878,310,100643
12:14:15.425,4291,974.609375,280.2734375,-88.8671875,0.6450736915371041,0.058643062867009474,0.010995574287564277,-1232,-1663,-1258,3878,310,100643
12:14:15.446,4292,980.46875,265.625,-79.1015625,0.4605923896013036,0.008552113334772215,0.012217304763960306,-1232,-1663,-1258,3878,310,100643
12:14:15.456,4293,991.2109375,289.0625,-77.1484375,0.25656340004316647,-0.05375614096142535,0.03543018381548489,-1232,-1663,-1258,3878,310,100643
12:14:15.477,4294,998.046875,309.5703125,-84.9609375,0.1075122819228507,-0.09773843811168245,0.03787364476827696,-1227,-1668,-1271,3878,310,100643
12:14:15.498,4295,996.09375,305.6640625,-85.9375,0.05375614096142535,-0.1270599695451872,0.03665191429188092,-1227,-1668,-1271,3878,310,100643
12:14:15.518,4296,998.046875,303.7109375,-91.796875,-0.0317649923862968,-0.1307251609743753,-0.008552113334772215,-1227,-1668,-1271,3878,310,100643
12:14:15.549,4297,997.0703125,297.8515625,-87.890625,-0.07452555906015788,-0.1270599695451872,-0.03787364476827696,-1227,-1668,-1271,3878,310,100643
12:14:15.570,4298,995.1171875,297.8515625,-81.0546875,-0.08429940287132612,-0.10995574287564278,-0.07086036763096978,-1227,-1668,-1271,3878,310,100643
12:14:15.590,4299,992.1875,301.7578125,-74.21875,-0.04642575810304917,-0.08552113334772216,-0.0952949771588904,-1229,-1671,-1276,3878,310,100643
12:14:15.610,4300,992.1875,291.9921875,-69.3359375,0.05375614096142535,-0.08429940287132612,-0.1551597705022959,-1229,-1671,-1276,3878,310,100643
12:14:15.620,4301,985.3515625,269.53125,-67.3828125,0.12461650859239513,-0.08429940287132612,-0.17715091907742447,-1229,-1671,-1276,3878,310,100643
12:14:15.641,4302,980.46875,246.09375,-78.125,0.15149457907310784,-0.08796459430051422,-0.1942551457469689,-1229,-1671,-1276,3878,310,100643
12:14:15.661,4303,982.421875,250.9765625,-80.078125,0.12583823906879116,-0.08552113334772216,-0.18081611050661253,-1232,-1674,-1257,3878,310,100643
12:14:15.753,4304,982.421875,242.1875,-77.1484375,0.07452555906015788,-0.09162978572970232,-0.16737707526625623,-1232,-1674,-1257,3878,310,100643
12:14:15.773,4305,984.375,250.9765625,-68.359375,0.04642575810304917,-0.1075122819228507,-0.1429424657383356,-1232,-1674,-1257,3878,310,100643
12:14:15.793,4306,976.5625,253.90625,-69.3359375,0.048869219055841226,-0.1038470904936626,-0.15882496193148402,-1232,-1674,-1257,3878,310,100643
12:14:15.804,4307,967.7734375,216.796875,-74.21875,0.05009094953223726,-0.0867428638241182,-0.16737707526625623,-1232,-1674,-1257,3878,310,100643
12:14:15.824,4308,973.6328125,230.46875,-81.0546875,0.019547687622336492,-0.07574728953655392,-0.10995574287564278,-1226,-1666,-1255,3878,310,100643
12:14:15.844,4309,980.46875,252.9296875,-83.0078125,0.013439035240356337,-0.08552113334772216,-0.0671951762017817,-1226,-1666,-1255,3878,310,100643
12:14:15.865,4310,972.65625,249.0234375,-78.125,0.019547687622336492,-0.0830776723949301,-0.01832595714594046,-1226,-1666,-1255,3878,310,100643
12:14:15.876,4311,965.8203125,257.8125,-82.03125,0.052534410485029326,-0.07208209810736582,-0.013439035240356337,-1226,-1666,-1255,3878,310,100643
12:14:15.896,4312,971.6796875,252.9296875,-81.0546875,0.06230825429619757,-0.07330382858376185,-0.03543018381548489,-1226,-1666,-1255,3878,310,100643
12:14:15.917,4313,977.5390625,255.859375,-87.890625,0.03054326190990077,-0.06230825429619757,-0.052534410485029326,-1236,-1666,-1271,3878,310,100643
12:14:15.938,4314,976.5625,252.9296875,-94.7265625,0.008552113334772215,-0.06841690667817772,-0.025656340004316647,-1236,-1666,-1271,3878,310,100643
12:14:15.959,4315,979.4921875,261.71875,-93.75,0.0,-0.0830776723949301,-0.014660765716752368,-1236,-1666,-1271,3878,310,100643
12:14:15.969,4316,983.3984375,258.7890625,-90.8203125,0.010995574287564277,-0.07452555906015788,-0.009773843811168246,-1236,-1666,-1271,3878,310,100643
12:14:15.990,4317,978.515625,260.7421875,-91.796875,-0.029321531433504737,-0.09407324668249437,-0.020769418098732523,-1232,-1665,-1255,3878,310,100643
12:14:16.11,4318,976.5625,262.6953125,-95.703125,-0.06230825429619757,-0.09285151620609834,-0.01832595714594046,-1232,-1665,-1255,3878,310,100643
12:14:16.32,4319,976.5625,261.71875,-95.703125,-0.09773843811168245,-0.10506882097005865,-0.0158824961931484,-1232,-1665,-1255,3878,310,100643
12:14:16.42,4320,981.4453125,271.484375,-90.8203125,-0.09651670763528641,-0.1075122819228507,-0.03543018381548489,-1232,-1665,-1255,3878,310,100643
12:14:16.62,4321,979.4921875,269.53125,-89.84375,-0.09285151620609834,-0.09773843811168245,-0.03298672286269283,-1232,-1665,-1255,3878,310,100643
12:14:16.82,4322,973.6328125,268.5546875,-95.703125,-0.08918632477691024,-0.1038470904936626,-0.03543018381548489,-1231,-1665,-1266,3878,310,100643
12:14:16.103,4323,974.609375,267.578125,-99.609375,-0.0830776723949301,-0.0830776723949301,-0.03665191429188092,-1231,-1665,-1266,3878,310,100643
12:14:16.123,4324,974.609375,261.71875,-92.7734375,-0.07574728953655392,-0.09162978572970232,-0.03420845333908886,-1231,-1665,-1266,3878,310,100643
12:14:16.133,4325,975.5859375,270.5078125,-94.7265625,-0.08429940287132612,-0.08796459430051422,-0.04642575810304917,-1231,-1665,-1266,3878,310,100643
12:14:16.153,4326,967.7734375,261.71875,-94.7265625,-0.08552113334772216,-0.10018189906447451,-0.025656340004316647,-1231,-1665,-1266,3878,310,100643
12:14:16.174,4327,962.890625,262.6953125,-98.6328125,-0.10140362954087055,-0.09040805525330627,-0.023212879051524585,-1232,-1665,-1260,3878,310,100644
12:14:16.194,4328,972.65625,261.71875,-94.7265625,-0.11606439525762292,-0.09407324668249437,-0.021991148575128554,-1232,-1665,-1260,3878,310,100644
12:14:16.205,4329,972.65625,266.6015625,-92.7734375,-0.12950343049797927,-0.09407324668249437,-0.010995574287564277,-1232,-1665,-1260,3878,310,100644
12:14:16.225,4330,975.5859375,272.4609375,-94.7265625,-0.12583823906879116,-0.09040805525330627,-0.013439035240356337,-1232,-1665,-1260,3878,310,100644
12:14:16.245,4331,974.609375,271.484375,-96.6796875,-0.09040805525330627,-0.08796459430051422,-0.029321531433504737,-1233,-1666,-1263,3878,310,100644
12:14:16.266,4332,973.6328125,266.6015625,-90.8203125,-0.08552113334772216,-0.07819075048934597,-0.01710422666954443,-1233,-1666,-1263,3878,310,100644
12:14:16.286,4333,973.6328125,267.578125,-95.703125,-0.11239920382843484,-0.07330382858376185,-0.03420845333908886,-1233,-1666,-1263,3878,310,100644
12:14:16.296,4334,971.6796875,275.390625,-100.5859375,-0.11239920382843484,-0.07452555906015788,-0.010995574287564277,-1233,-1666,-1263,3878,310,100644
12:14:16.317,4335,959.9609375,265.625,-100.5859375,-0.08429940287132612,-0.07330382858376185,-0.01710422666954443,-1233,-1666,-1263,3878,310,100644
12:14:16.338,4336,965.8203125,261.71875,-99.609375,-0.10873401239924674,-0.07330382858376185,-0.0158824961931484,-1237,-1669,-1266,3878,310,100644
12:14:16.358,4337,970.703125,261.71875,-102.5390625,-0.1307251609743753,-0.08552113334772216,0.008552113334772215,-1237,-1669,-1266,3878,310,100644
12:14:16.369,4338,975.5859375,274.4140625,-98.6328125,-0.11972958668681102,-0.06841690667817772,0.010995574287564277,-1237,-1669,-1266,3878,310,100644
12:14:16.389,4339,973.6328125,272.4609375,-98.6328125,-0.0952949771588904,-0.07819075048934597,0.009773843811168246,-1237,-1669,-1266,3878,310,100644
12:14:16.410,4340,969.7265625,277.34375,-99.609375,-0.09040805525330627,-0.0671951762017817,-0.012217304763960306,-1237,-1669,-1266,3878,310,100644
12:14:16.431,4341,970.703125,269.53125,-104.4921875,-0.09773843811168245,-0.06597344572538566,-0.0158824961931484,-1233,-1665,-1262,3878,310,100644
12:14:16.451,4342,966.796875,273.4375,-102.5390625,-0.08552113334772216,-0.0635299847725936,-0.007330382858376184,-1233,-1665,-1262,3878,310,100644
12:14:16.461,4343,972.65625,267.578125,-104.4921875,-0.0830776723949301,-0.051312680008633295,-0.007330382858376184,-1233,-1665,-1262,3878,310,100644
12:14:16.482,4344,969.7265625,267.578125,-106.4453125,-0.09162978572970232,-0.06108652381980154,-0.014660765716752368,-1233,-1665,-1262,3878,310,100644
12:14:16.503,4345,972.65625,271.484375,-104.4921875,-0.10262536001726659,-0.06108652381980154,-0.006108652381980153,-1233,-1665,-1262,3878,310,100644
12:14:16.523,4346,976.5625,279.296875,-102.5390625,-0.08429940287132612,-0.06108652381980154,0.003665191429188092,-1233,-1668,-1262,3878,310,100644
12:14:16.534,4347,976.5625,278.3203125,-101.5625,-0.052534410485029326,-0.06475171524898964,-0.014660765716752368,-1233,-1668,-1262,3878,310,100644
12:14:16.554,4348,971.6796875,266.6015625,-104.4921875,-0.0476474885794452,-0.052534410485029326,-0.0317649923862968,-1233,-1668,-1262,3878,310,100644
12:14:16.574,4349,979.4921875,267.578125,-104.4921875,-0.06108652381980154,-0.05742133239061345,-0.02809980095710871,-1233,-1668,-1262,3878,310,100644
12:14:16.595,4350,974.609375,260.7421875,-102.5390625,-0.07696902001294993,-0.06108652381980154,-0.021991148575128554,-1235,-1669,-1258,3878,310,100644
12:14:16.615,4351,973.6328125,270.5078125,-103.515625,-0.06108652381980154,-0.06963863715457375,-0.03665191429188092,-1235,-1669,-1258,3878,310,100644
12:14:16.625,4352,970.703125,267.578125,-104.4921875,-0.04398229715025711,-0.06963863715457375,-0.023212879051524585,-1235,-1669,-1258,3878,310,100644
12:14:16.666,4353,970.703125,260.7421875,-105.46875,-0.03298672286269283,-0.06597344572538566,-0.04642575810304917,-1235,-1669,-1258,3878,310,100644
12:14:16.686,4354,977.5390625,260.7421875,-107.421875,-0.052534410485029326,-0.05986479334340551,-0.04153883619746505,-1235,-1669,-1258,3878,310,100644
12:14:16.696,4355,981.4453125,257.8125,-107.421875,-0.07086036763096978,-0.058643062867009474,-0.029321531433504737,-1234,-1671,-1270,3878,310,100644
12:14:16.717,4356,983.3984375,255.859375,-108.3984375,-0.0867428638241182,-0.05986479334340551,-0.03298672286269283,-1234,-1671,-1270,3878,310,100644
12:14:16.737,4357,984.375,263.671875,-107.421875,-0.1233947781159991,-0.08552113334772216,-0.026878070480712675,-1234,-1671,-1270,3878,310,100644
12:14:16.758,4358,983.3984375,266.6015625,-110.3515625,-0.12950343049797927,-0.07696902001294993,-0.04276056667386108,-1234,-1671,-1270,3878,310,100644
12:14:16.779,4359,984.375,268.5546875,-114.2578125,-0.1343903524035634,-0.07941248096574201,-0.06108652381980154,-1234,-1671,-1270,3878,310,100644
12:14:16.810,4360,991.2109375,265.625,-118.1640625,-0.1502728485967118,-0.0867428638241182,-0.04520402762665313,-1235,-1669,-1259,3878,310,100644
12:14:16.830,4361,988.28125,262.6953125,-115.234375,-0.16493361431346415,-0.09407324668249437,-0.04642575810304917,-1235,-1669,-1259,3878,310,100644
12:14:16.851,4362,979.4921875,265.625,-119.140625,-0.17837264955382048,-0.11362093430483088,-0.04276056667386108,-1235,-1669,-1259,3878,310,100644
12:14:16.862,4363,977.5390625,255.859375,-113.28125,-0.1710422666954443,-0.1307251609743753,-0.051312680008633295,-1235,-1669,-1259,3878,310,100644
12:14:16.882,4364,968.75,262.6953125,-120.1171875,-0.16859880574265224,-0.1233947781159991,-0.05619960191421742,-1235,-1668,-1259,3878,310,100644
12:14:16.902,4365,973.6328125,258.7890625,-121.09375,-0.1466076571675237,-0.12217304763960309,-0.052534410485029326,-1235,-1668,-1259,3878,310,100644
12:14:16.923,4366,982.421875,266.6015625,-122.0703125,-0.08918632477691024,-0.12828170002158323,-0.03054326190990077,-1235,-1668,-1259,3878,310,100644
12:14:16.944,4367,988.28125,261.71875,-119.140625,-0.05009094953223726,-0.13316862192716736,-0.02809980095710871,-1235,-1668,-1259,3878,310,100644
12:14:16.954,4368,985.3515625,250.9765625,-120.1171875,-0.04520402762665313,-0.14172073526193957,-0.024434609527920613,-1235,-1668,-1259,3878,310,100644
12:14:16.975,4369,981.4453125,259.765625,-125.0,-0.06475171524898964,-0.15271630954950383,-0.025656340004316647,-1241,-1676,-1261,3878,310,100644
12:14:16.996,4370,977.5390625,265.625,-119.140625,-0.0867428638241182,-0.15393804002589986,-0.023212879051524585,-1241,-1676,-1261,3878,310,100644
12:14:17.16,4371,975.5859375,260.7421875,-117.1875,-0.0952949771588904,-0.15149457907310784,-0.0476474885794452,-1241,-1676,-1261,3878,310,100644
12:14:17.27,4372,970.703125,259.765625,-114.2578125,-0.0867428638241182,-0.14172073526193957,-0.052534410485029326,-1241,-1676,-1261,3878,310,100644
12:14:17.47,4373,963.8671875,258.7890625,-120.1171875,-0.05986479334340551,-0.1429424657383356,-0.05009094953223726,-1241,-1676,-1261,3878,310,100644
12:14:17.89,4374,962.890625,257.8125,-120.1171875,-0.04398229715025711,-0.1478293876439197,-0.0317649923862968,-1238,-1671,-1249,3878,310,100644
12:14:17.99,4375,963.8671875,259.765625,-119.140625,-0.03543018381548489,-0.1466076571675237,-0.0158824961931484,-1238,-1671,-1249,3878,310,100644
12:14:17.120,4376,976.5625,255.859375,-118.1640625,-0.07086036763096978,-0.16371188383706814,-0.021991148575128554,-1238,-1671,-1249,3878,310,100644
12:14:17.140,4377,980.46875,252.9296875,-118.1640625,-0.1233947781159991,-0.16737707526625623,-0.021991148575128554,-1238,-1671,-1249,3878,310,100642
12:14:17.161,4378,976.5625,261.71875,-112.3046875,-0.16126842288427604,-0.17592918860102844,-0.01710422666954443,-1237,-1671,-1247,3878,310,100642
12:14:17.181,4379,971.6796875,258.7890625,-111.328125,-0.18325957145940464,-0.197920337176157,-0.03543018381548489,-1237,-1671,-1247,3878,310,100642
12:14:17.191,4380,972.65625,258.7890625,-110.3515625,-0.19303341527057283,-0.17959438003021652,-0.04642575810304917,-1237,-1671,-1247,3878,310,100642
12:14:17.212,4381,972.65625,262.6953125,-108.3984375,-0.197920337176157,-0.1710422666954443,-0.05619960191421742,-1237,-1671,-1247,3878,310,100642
12:14:17.232,4382,967.7734375,257.8125,-101.5625,-0.1893682238413848,-0.16859880574265224,-0.039095375244672985,-1237,-1671,-1247,3878,310,100642
12:14:17.253,4383,963.8671875,248.046875,-101.5625,-0.2113593724165133,-0.16126842288427604,-0.052534410485029326,-1237,-1671,-1250,3878,310,100642
12:14:17.263,4384,964.84375,248.046875,-99.609375,-0.2528982086139784,-0.1551597705022959,-0.03054326190990077,-1237,-1671,-1250,3878,310,100642
12:14:17.305,4385,968.75,254.8828125,-107.421875,-0.2736676267127109,-0.14905111812031577,-0.03543018381548489,-1237,-1671,-1250,3878,310,100642
12:14:17.325,4386,972.65625,257.8125,-101.5625,-0.2651155133779387,-0.14049900478554353,-0.04520402762665313,-1237,-1671,-1250,3878,310,100642
12:14:17.335,4387,964.84375,240.234375,-100.5859375,-0.2712241657599188,-0.12583823906879116,-0.039095375244672985,-1237,-1671,-1250,3878,310,100642
12:14:17.356,4388,963.8671875,245.1171875,-105.46875,-0.3200933848157601,-0.11606439525762292,-0.03420845333908886,-1243,-1663,-1235,3878,310,100642
12:14:17.377,4389,962.890625,245.1171875,-114.2578125,-0.33475415053251245,-0.11362093430483088,-0.013439035240356337,-1243,-1663,-1235,3878,310,100642
12:14:17.397,4390,964.84375,246.09375,-110.3515625,-0.35430183815484895,-0.10262536001726659,-0.01710422666954443,-1243,-1663,-1235,3878,310,100642
12:14:17.418,4391,966.796875,246.09375,-115.234375,-0.3469714552964728,-0.09773843811168245,0.004886921905584123,-1243,-1663,-1235,3878,310,100642
12:14:17.428,4392,969.7265625,246.09375,-116.2109375,-0.35185837720205687,-0.1075122819228507,-0.012217304763960306,-1239,-1664,-1236,3878,310,100642
12:14:17.448,4393,970.703125,244.140625,-113.28125,-0.3897320219703338,-0.0867428638241182,-0.0012217304763960308,-1239,-1664,-1236,3878,310,100642
12:14:17.469,4394,968.75,246.09375,-119.140625,-0.41294490102185843,-0.1038470904936626,0.013439035240356337,-1239,-1664,-1236,3878,310,100642
12:14:17.500,4395,966.796875,248.046875,-116.2109375,-0.4288273972150068,-0.08185594191853407,0.023212879051524585,-1239,-1664,-1236,3878,310,100642
12:14:17.520,4396,974.609375,257.8125,-117.1875,-0.41783182292744253,-0.0830776723949301,0.026878070480712675,-1239,-1664,-1236,3878,310,100642
12:14:17.541,4397,968.75,262.6953125,-117.1875,-0.39217548292312593,-0.07208209810736582,0.03298672286269283,-1238,-1671,-1232,3878,310,100642
12:14:17.562,4398,972.65625,258.7890625,-118.1640625,-0.3787364476827696,-0.07941248096574201,0.03543018381548489,-1238,-1671,-1232,3878,310,100642
12:14:17.572,4399,969.7265625,250.9765625,-116.2109375,-0.40317105721069013,-0.0830776723949301,0.010995574287564277,-1238,-1671,-1232,3878,310,100642
12:14:17.593,4400,955.078125,248.046875,-121.09375,-0.4654793115068877,-0.0867428638241182,0.010995574287564277,-1238,-1671,-1232,3878,310,100642
12:14:17.614,4401,952.1484375,259.765625,-120.1171875,-0.5082398781807488,-0.08185594191853407,0.04520402762665313,-1238,-1671,-1232,3878,310,100642
12:14:17.655,4402,945.3125,264.6484375,-111.328125,-0.4850269991292242,-0.07941248096574201,0.04642575810304917,-1242,-1662,-1243,3878,310,100642
12:14:17.665,4403,935.546875,273.4375,-105.46875,-0.43860124102617504,-0.06963863715457375,0.06841690667817772,-1242,-1662,-1243,3878,310,100642
12:14:17.685,4404,914.0625,263.671875,-93.75,-0.41294490102185843,-0.052534410485029326,0.0671951762017817,-1242,-1662,-1243,3878,310,100642
12:14:17.706,4405,942.3828125,273.4375,-102.5390625,-0.3677408733952052,-0.003665191429188092,0.08185594191853407,-1242,-1662,-1243,3878,310,100642
12:14:17.727,4406,993.1640625,283.203125,-110.3515625,-0.3200933848157601,0.004886921905584123,0.1148426647812269,-1242,-1662,-1243,3878,310,100642
12:14:17.737,4407,1010.7421875,291.9921875,-96.6796875,-0.3042108886226117,0.013439035240356337,0.14538592669112765,-1244,-1667,-1237,3878,310,100642
12:14:17.757,4408,1012.6953125,295.8984375,-99.609375,-0.28099800957108706,0.007330382858376184,0.16004669240788005,-1244,-1667,-1237,3878,310,100642
12:14:17.799,4409,1000.0,301.7578125,-100.5859375,-0.27611108766550296,0.0158824961931484,0.14538592669112765,-1244,-1667,-1237,3878,310,100642
12:14:17.809,4410,984.375,302.734375,-109.375,-0.25900686099595854,0.05009094953223726,0.1111774733520388,-1244,-1667,-1237,3878,310,100642
12:14:17.830,4411,975.5859375,319.3359375,-132.8125,-0.20647245051092922,0.07574728953655392,0.10629055144645469,-1248,-1671,-1242,3878,310,100642
12:14:17.850,4412,969.7265625,324.21875,-125.0,-0.09285151620609834,0.0989601685880785,0.0867428638241182,-1248,-1671,-1242,3878,310,100642
12:14:17.870,4413,963.8671875,308.59375,-134.765625,0.008552113334772215,0.06597344572538566,0.07819075048934597,-1248,-1671,-1242,3878,310,100642
12:14:17.891,4414,953.125,291.9921875,-145.5078125,-0.03665191429188092,0.03298672286269283,0.023212879051524585,-1248,-1671,-1242,3878,310,100642
12:14:17.901,4415,957.03125,291.015625,-154.296875,-0.12461650859239513,-0.0024434609527920616,0.0158824961931484,-1248,-1671,-1242,3878,310,100642
12:14:17.922,4416,965.8203125,282.2265625,-151.3671875,-0.2186897552748895,-0.04153883619746505,0.01710422666954443,-1236,-1672,-1239,3878,310,100642
12:14:17.942,4417,951.171875,294.921875,-125.9765625,-0.3200933848157601,-0.05986479334340551,-0.025656340004316647,-1236,-1672,-1239,3878,310,100642
12:14:17.963,4418,955.078125,295.8984375,-114.2578125,-0.3274237676741363,-0.07330382858376185,-0.06108652381980154,-1236,-1672,-1239,3878,310,100642
12:14:17.983,4419,974.609375,302.734375,-109.375,-0.2748893571891069,-0.07330382858376185,-0.09773843811168245,-1236,-1672,-1239,3878,310,100642
12:14:17.994,4420,982.421875,305.6640625,-110.3515625,-0.17837264955382048,-0.03543018381548489,-0.09651670763528641,-1236,-1672,-1239,3878,310,100642
12:14:18.14,4421,988.28125,302.734375,-116.2109375,-0.04642575810304917,-0.012217304763960306,-0.08918632477691024,-1242,-1677,-1240,3878,310,100642
12:14:18.35,4422,987.3046875,284.1796875,-117.1875,0.006108652381980153,0.014660765716752368,-0.09285151620609834,-1242,-1677,-1240,3878,310,100642
12:14:18.66,4423,988.28125,291.9921875,-120.1171875,0.020769418098732523,0.004886921905584123,-0.09285151620609834,-1242,-1677,-1240,3878,310,100642
12:14:18.87,4424,982.421875,279.296875,-129.8828125,0.05986479334340551,0.0,-0.09040805525330627,-1242,-1677,-1240,3878,310,100642
12:14:18.107,4425,969.7265625,285.15625,-134.765625,0.10873401239924674,-0.021991148575128554,-0.07330382858376185,-1242,-1675,-1247,3878,310,100642
12:14:18.129,4426,959.9609375,291.015625,-135.7421875,0.14172073526193957,-0.048869219055841226,-0.048869219055841226,-1242,-1675,-1247,3878,310,100642
12:14:18.139,4427,960.9375,297.8515625,-128.90625,0.17592918860102844,-0.05009094953223726,-0.04031710572106901,-1242,-1675,-1247,3878,310,100648
12:14:18.160,4428,974.609375,288.0859375,-115.234375,0.16004669240788005,-0.06841690667817772,-0.05986479334340551,-1242,-1675,-1247,3878,310,100648
12:14:18.181,4429,969.7265625,286.1328125,-111.328125,0.14538592669112765,-0.08063421144213802,-0.0867428638241182,-1242,-1675,-1247,3878,310,100648
12:14:18.211,4430,957.03125,295.8984375,-117.1875,0.15760323145508798,-0.08796459430051422,-0.06597344572538566,-1238,-1668,-1242,3878,310,100648
12:14:18.232,4431,981.4453125,292.96875,-111.328125,0.18814649336498873,-0.09285151620609834,-0.058643062867009474,-1238,-1668,-1242,3878,310,100648
12:14:18.252,4432,1002.9296875,285.15625,-101.5625,0.20525072003453318,-0.1038470904936626,-0.05986479334340551,-1238,-1668,-1242,3878,310,100648
12:14:18.273,4433,1008.7890625,294.921875,-99.609375,0.23212879051524585,-0.11728612573401895,-0.05986479334340551,-1238,-1668,-1242,3878,310,100648
12:14:18.283,4434,1003.90625,302.734375,-97.65625,0.32131511529215606,-0.10262536001726659,-0.05986479334340551,-1238,-1668,-1242,3878,310,100648
12:14:18.303,4435,1005.859375,294.921875,-94.7265625,0.42638393626221477,-0.0830776723949301,-0.03665191429188092,-1230,-1667,-1265,3878,310,100648
12:14:18.323,4436,996.09375,286.1328125,-103.515625,0.4923573819876005,-0.06108652381980154,-0.01832595714594046,-1230,-1667,-1265,3878,310,100648
12:14:18.344,4437,984.375,284.1796875,-109.375,0.4838052686528282,-0.05375614096142535,-0.03298672286269283,-1230,-1667,-1265,3878,310,100648
12:14:18.364,4438,971.6796875,279.296875,-110.3515625,0.4825835381764321,-0.08063421144213802,-0.07208209810736582,-1230,-1667,-1265,3878,310,100648
12:14:18.374,4439,959.9609375,277.34375,-103.515625,0.4813618077000361,-0.0952949771588904,-0.1148426647812269,-1237,-1676,-1248,3878,310,100648
12:14:18.395,4440,952.1484375,257.8125,-101.5625,0.43860124102617504,-0.13316862192716736,-0.1466076571675237,-1237,-1676,-1248,3878,310,100648
12:14:18.415,4441,956.0546875,244.140625,-106.4453125,0.3139847324337799,-0.1429424657383356,-0.20036379812894903,-1237,-1676,-1248,3878,310,100648
12:14:18.436,4442,963.8671875,242.1875,-95.703125,0.23212879051524585,-0.14172073526193957,-0.2296853295624538,-1237,-1676,-1248,3878,310,100648
12:14:18.456,4443,972.65625,247.0703125,-82.03125,0.1954768762233649,-0.15760323145508798,-0.2467895562319982,-1237,-1676,-1248,3878,310,100648
12:14:18.486,4444,978.515625,233.3984375,-73.2421875,0.18081611050661253,-0.14905111812031577,-0.24923301718479027,-1243,-1673,-1247,3878,310,100648
12:14:18.506,4445,984.375,231.4453125,-75.1953125,0.16371188383706814,-0.14172073526193957,-0.2309070600388498,-1243,-1673,-1247,3878,310,100648
12:14:18.527,4446,991.2109375,232.421875,-75.1953125,0.17226399717184035,-0.1111774733520388,-0.2028072590817411,-1243,-1673,-1247,3878,310,100648
12:14:18.547,4447,984.375,231.4453125,-73.2421875,0.19181168479417682,-0.08429940287132612,-0.19181168479417682,-1243,-1673,-1247,3878,310,100648
12:14:18.557,4448,982.421875,227.5390625,-75.1953125,0.2028072590817411,-0.04276056667386108,-0.16859880574265224,-1243,-1673,-1247,3878,310,100648
12:14:18.577,4449,998.046875,226.5625,-82.03125,0.20525072003453318,-0.012217304763960306,-0.14416419621473164,-1232,-1666,-1237,3878,310,100648
12:14:18.597,4450,999.0234375,226.5625,-93.75,0.22724186860966175,0.019547687622336492,-0.1270599695451872,-1232,-1666,-1237,3878,310,100648
12:14:18.618,4451,991.2109375,228.515625,-102.5390625,0.2309070600388498,0.03787364476827696,-0.10873401239924674,-1232,-1666,-1237,3878,310,100648
12:14:18.628,4452,966.796875,219.7265625,-107.421875,0.2235766771804736,0.048869219055841226,-0.0952949771588904,-1232,-1666,-1237,3878,310,100648
12:14:18.649,4453,958.0078125,222.65625,-119.140625,0.2101376419401173,0.07330382858376185,-0.06841690667817772,-1235,-1668,-1235,3878,310,100648
12:14:18.670,4454,951.171875,223.6328125,-132.8125,0.2186897552748895,0.08552113334772216,-0.04153883619746505,-1235,-1668,-1235,3878,310,100648
12:14:18.710,4455,959.9609375,224.609375,-145.5078125,0.2235766771804736,0.0635299847725936,-0.023212879051524585,-1235,-1668,-1235,3878,310,100648
12:14:18.721,4456,959.9609375,222.65625,-145.5078125,0.2076941809873252,0.048869219055841226,-0.019547687622336492,-1235,-1668,-1235,3878,310,100648
12:14:18.741,4457,958.984375,214.84375,-150.390625,0.1343903524035634,0.020769418098732523,-0.019547687622336492,-1235,-1668,-1235,3878,310,100648
12:14:18.761,4458,963.8671875,212.890625,-154.296875,0.05742133239061345,-0.0158824961931484,-0.029321531433504737,-1234,-1672,-1251,3878,310,100648
12:14:18.782,4459,980.46875,209.9609375,-155.2734375,-0.03665191429188092,-0.058643062867009474,-0.025656340004316647,-1234,-1672,-1251,3878,310,100648
12:14:18.792,4460,990.234375,222.65625,-142.578125,-0.12217304763960309,-0.09040805525330627,-0.01832595714594046,-1234,-1672,-1251,3878,310,100648
12:14:18.813,4461,996.09375,233.3984375,-141.6015625,-0.16249015336067207,-0.12583823906879116,-0.014660765716752368,-1234,-1672,-1251,3878,310,100648
12:14:18.834,4462,990.234375,226.5625,-135.7421875,-0.18448130193580062,-0.14416419621473164,-0.021991148575128554,-1234,-1672,-1251,3878,310,100648
12:14:18.854,4463,983.3984375,217.7734375,-132.8125,-0.21746802479849348,-0.14416419621473164,-0.02809980095710871,-1231,-1668,-1242,3878,310,100648
12:14:18.874,4464,972.65625,234.375,-128.90625,-0.22846359908605776,-0.1502728485967118,-0.013439035240356337,-1231,-1668,-1242,3878,310,100648
12:14:18.905,4465,973.6328125,232.421875,-123.046875,-0.18081611050661253,-0.15393804002589986,0.01710422666954443,-1231,-1668,-1242,3878,310,100648
12:14:18.927,4466,982.421875,237.3046875,-120.1171875,-0.1502728485967118,-0.15393804002589986,0.025656340004316647,-1231,-1668,-1242,3878,310,100648
12:14:18.948,4467,976.5625,238.28125,-119.140625,-0.1356120828799594,-0.14905111812031577,0.058643062867009474,-1228,-1664,-1247,3878,310,100648
12:14:18.958,4468,973.6328125,242.1875,-123.046875,-0.14416419621473164,-0.1343903524035634,0.06597344572538566,-1228,-1664,-1247,3878,310,100648
12:14:18.978,4469,971.6796875,253.90625,-124.0234375,-0.1661553447898602,-0.14049900478554353,0.08918632477691024,-1228,-1664,-1247,3878,310,100648
12:14:18.998,4470,972.65625,270.5078125,-122.0703125,-0.17959438003021652,-0.13805554383275148,0.08429940287132612,-1228,-1664,-1247,3878,310,100648
12:14:19.19,4471,964.84375,261.71875,-126.953125,-0.19181168479417682,-0.14172073526193957,0.04642575810304917,-1228,-1664,-1247,3878,310,100648
12:14:19.49,4472,956.0546875,261.71875,-128.90625,-0.2431243648028101,-0.14905111812031577,0.014660765716752368,-1239,-1672,-1249,3878,310,100648
12:14:19.70,4473,958.984375,266.6015625,-125.0,-0.31642819338657197,-0.16859880574265224,-0.020769418098732523,-1239,-1672,-1249,3878,310,100648
12:14:19.90,4474,964.84375,274.4140625,-125.9765625,-0.3677408733952052,-0.17592918860102844,-0.04642575810304917,-1239,-1672,-1249,3878,310,100648
12:14:19.111,4475,976.5625,277.34375,-119.140625,-0.3652974124424132,-0.16982053621904827,-0.0830776723949301,-1239,-1672,-1249,3878,310,100648
12:14:19.131,4476,989.2578125,270.5078125,-122.0703125,-0.35796702958403703,-0.16126842288427604,-0.09651670763528641,-1239,-1672,-1249,3878,310,100648
12:14:19.141,4477,991.2109375,265.625,-121.09375,-0.34330626386728463,-0.15149457907310784,-0.0830776723949301,-1233,-1672,-1248,3890,310,100647
12:14:19.161,4478,990.234375,271.484375,-122.0703125,-0.31154127148098787,-0.14905111812031577,-0.07819075048934597,-1233,-1672,-1248,3890,310,100647
12:14:19.181,4479,987.3046875,276.3671875,-125.9765625,-0.29810223624063154,-0.12461650859239513,-0.0671951762017817,-1233,-1672,-1248,3890,310,100647
12:14:19.202,4480,976.5625,279.296875,-131.8359375,-0.23212879051524585,-0.10140362954087055,-0.04276056667386108,-1233,-1672,-1248,3890,310,100647
12:14:19.212,4481,965.8203125,274.4140625,-139.6484375,-0.17959438003021652,-0.0867428638241182,-0.024434609527920613,-1235,-1665,-1238,3890,310,100647
12:14:19.232,4482,950.1953125,280.2734375,-144.53125,-0.14049900478554353,-0.0671951762017817,0.010995574287564277,-1235,-1665,-1238,3890,310,100647
12:14:19.253,4483,947.265625,286.1328125,-155.2734375,-0.1111774733520388,-0.07330382858376185,0.020769418098732523,-1235,-1665,-1238,3890,310,100647
12:14:19.273,4484,945.3125,281.25,-158.203125,-0.09285151620609834,-0.058643062867009474,0.004886921905584123,-1235,-1665,-1238,3890,310,100647
12:14:19.324,4485,951.171875,285.15625,-160.15625,-0.11972958668681102,-0.08918632477691024,-0.023212879051524585,-1235,-1665,-1238,3890,310,100647
12:14:19.345,4486,945.3125,278.3203125,-155.2734375,-0.1905899543177808,-0.10873401239924674,-0.05375614096142535,-1234,-1668,-1238,3890,310,100647
12:14:19.365,4487,942.3828125,280.2734375,-148.4375,-0.25900686099595854,-0.11239920382843484,-0.08796459430051422,-1234,-1668,-1238,3890,310,100647
12:14:19.386,4488,953.125,279.296875,-154.296875,-0.2822197400474831,-0.1148426647812269,-0.10995574287564278,-1234,-1668,-1238,3890,310,100647
12:14:19.396,4489,965.8203125,274.4140625,-131.8359375,-0.32498030672134415,-0.10995574287564278,-0.12950343049797927,-1234,-1668,-1238,3890,310,100647
12:14:19.416,4490,957.03125,274.4140625,-126.953125,-0.3274237676741363,-0.10873401239924674,-0.1111774733520388,-1234,-1668,-1238,3890,310,100647
12:14:19.436,4491,951.171875,279.296875,-128.90625,-0.278554548618295,-0.06475171524898964,-0.10262536001726659,-1235,-1669,-1240,3890,310,100647
12:14:19.457,4492,962.890625,273.4375,-128.90625,-0.20647245051092922,-0.029321531433504737,-0.0989601685880785,-1235,-1669,-1240,3890,310,100647
12:14:19.467,4493,977.5390625,285.15625,-138.671875,-0.11728612573401895,0.021991148575128554,-0.03665191429188092,-1235,-1669,-1240,3890,310,100647
12:14:19.487,4494,970.703125,283.203125,-152.34375,0.06841690667817772,0.05009094953223726,0.0317649923862968,-1235,-1669,-1240,3890,310,100647
12:14:19.508,4495,961.9140625,292.96875,-158.203125,0.16126842288427604,0.0635299847725936,0.0635299847725936,-1235,-1669,-1240,3890,310,100647
12:14:19.529,4496,948.2421875,278.3203125,-176.7578125,0.1942551457469689,0.04153883619746505,0.07941248096574201,-1241,-1664,-1223,3890,310,100647
12:14:19.549,4497,957.03125,277.34375,-178.7109375,0.13194689145077132,0.01832595714594046,0.08429940287132612,-1241,-1664,-1223,3890,310,100647
12:14:19.559,4498,963.8671875,291.015625,-180.6640625,-0.01832595714594046,-0.03298672286269283,0.052534410485029326,-1241,-1664,-1223,3890,310,100647
12:14:19.580,4499,962.890625,293.9453125,-166.9921875,-0.07941248096574201,-0.051312680008633295,0.01832595714594046,-1241,-1664,-1223,3890,310,100647
12:14:19.601,4500,965.8203125,304.6875,-165.0390625,-0.10018189906447451,-0.08185594191853407,-0.009773843811168246,-1227,-1665,-1234,3890,310,100647
12:14:19.622,4501,974.609375,300.78125,-153.3203125,-0.08429940287132612,-0.09285151620609834,-0.029321531433504737,-1227,-1665,-1234,3890,310,100647
12:14:19.632,4502,979.4921875,301.7578125,-145.5078125,-0.07452555906015788,-0.09285151620609834,-0.03543018381548489,-1227,-1665,-1234,3890,310,100647
12:14:19.653,4503,962.890625,283.203125,-142.578125,-0.05986479334340551,-0.09407324668249437,-0.03787364476827696,-1227,-1665,-1234,3890,310,100647
12:14:19.673,4504,953.125,278.3203125,-141.6015625,-0.0830776723949301,-0.10018189906447451,-0.051312680008633295,-1227,-1665,-1234,3890,310,100647
12:14:19.693,4505,957.03125,278.3203125,-141.6015625,-0.0867428638241182,-0.0989601685880785,-0.051312680008633295,-1238,-1670,-1236,3890,310,100647
12:14:19.713,4506,963.8671875,286.1328125,-132.8125,-0.07696902001294993,-0.10506882097005865,-0.04398229715025711,-1238,-1670,-1236,3890,310,100647
12:14:19.744,4507,955.078125,281.25,-128.90625,-0.04642575810304917,-0.08552113334772216,-0.06841690667817772,-1238,-1670,-1236,3890,310,100647
12:14:19.765,4508,976.5625,279.296875,-132.8125,-0.01832595714594046,-0.07452555906015788,-0.07574728953655392,-1238,-1670,-1236,3890,310,100647
12:14:19.785,4509,991.2109375,280.2734375,-132.8125,-0.008552113334772215,-0.051312680008633295,-0.0830776723949301,-1238,-1670,-1236,3890,310,100647
12:14:19.805,4510,985.3515625,288.0859375,-140.625,0.026878070480712675,-0.03054326190990077,-0.12095131716320705,-1240,-1668,-1231,3890,310,100647
12:14:19.815,4511,982.421875,284.1796875,-142.578125,0.13194689145077132,0.0024434609527920616,-0.12217304763960309,-1240,-1668,-1231,3890,310,100647
12:14:19.836,4512,971.6796875,269.53125,-157.2265625,0.2076941809873252,-0.0012217304763960308,-0.11362093430483088,-1240,-1668,-1231,3890,310,100647
12:14:19.857,4513,966.796875,259.765625,-173.828125,0.19914206765255302,-0.014660765716752368,-0.07941248096574201,-1240,-1668,-1231,3890,310,100647
12:14:19.887,4514,967.7734375,253.90625,-164.0625,0.13805554383275148,-0.03298672286269283,-0.06108652381980154,-1235,-1666,-1243,3890,310,100647
12:14:19.908,4515,966.796875,257.8125,-165.0390625,0.03665191429188092,-0.08918632477691024,-0.06963863715457375,-1235,-1666,-1243,3890,310,100647
12:14:19.929,4516,963.8671875,263.671875,-158.203125,-0.024434609527920613,-0.10506882097005865,-0.09773843811168245,-1235,-1666,-1243,3890,310,100647
12:14:19.949,4517,957.03125,246.09375,-155.2734375,-0.06230825429619757,-0.12583823906879116,-0.12583823906879116,-1235,-1666,-1243,3890,310,100647
12:14:19.970,4518,959.9609375,245.1171875,-148.4375,-0.08918632477691024,-0.12828170002158323,-0.11728612573401895,-1235,-1666,-1243,3890,310,100647
12:14:19.980,4519,961.9140625,236.328125,-143.5546875,-0.09285151620609834,-0.13683381335635544,-0.10262536001726659,-1230,-1661,-1242,3890,310,100647
12:14:20.1,4520,970.703125,232.421875,-136.71875,-0.06230825429619757,-0.12461650859239513,-0.07696902001294993,-1230,-1661,-1242,3890,310,100647
12:14:20.21,4521,968.75,222.65625,-138.671875,-0.06841690667817772,-0.1343903524035634,-0.06108652381980154,-1230,-1661,-1242,3890,310,100647
12:14:20.42,4522,972.65625,217.7734375,-141.6015625,-0.1233947781159991,-0.1233947781159991,-0.04153883619746505,-1230,-1661,-1242,3890,310,100647
12:14:20.52,4523,978.515625,230.46875,-143.5546875,-0.17837264955382048,-0.13805554383275148,-0.01832595714594046,-1230,-1661,-1242,3890,310,100647
12:14:20.73,4524,984.375,233.3984375,-129.8828125,-0.2186897552748895,-0.13683381335635544,-0.024434609527920613,-1234,-1664,-1243,3890,310,100647
12:14:20.93,4525,997.0703125,236.328125,-131.8359375,-0.25656340004316647,-0.14538592669112765,-0.03543018381548489,-1234,-1664,-1243,3890,310,100647
12:14:20.114,4526,998.046875,237.3046875,-132.8125,-0.3017674276698196,-0.13805554383275148,-0.04642575810304917,-1234,-1664,-1243,3890,310,100647
12:14:20.134,4527,982.421875,235.3515625,-140.625,-0.3335324200561164,-0.13316862192716736,-0.04276056667386108,-1234,-1664,-1243,3878,310,100639
12:14:20.144,4528,968.75,233.3984375,-141.6015625,-0.3457497248200767,-0.11606439525762292,-0.020769418098732523,-1231,-1660,-1235,3878,310,100639
12:14:20.165,4529,952.1484375,237.3046875,-137.6953125,-0.33597588100890846,-0.1233947781159991,-0.023212879051524585,-1231,-1660,-1235,3878,310,100639
12:14:20.186,4530,955.078125,239.2578125,-146.484375,-0.31887165433936404,-0.1502728485967118,0.009773843811168246,-1231,-1660,-1235,3878,310,100639
12:14:20.206,4531,958.0078125,245.1171875,-148.4375,-0.31887165433936404,-0.16126842288427604,0.04398229715025711,-1231,-1660,-1235,3878,310,100639
12:14:20.237,4532,961.9140625,249.0234375,-143.5546875,-0.31887165433936404,-0.16982053621904827,0.07941248096574201,-1231,-1660,-1235,3878,310,100639
12:14:20.258,4533,966.796875,256.8359375,-139.6484375,-0.35918876006043304,-0.18814649336498873,0.09773843811168245,-1228,-1654,-1234,3878,310,100639
12:14:20.279,4534,965.8203125,274.4140625,-140.625,-0.4276056667386108,-0.1710422666954443,0.07696902001294993,-1228,-1654,-1234,3878,310,100639
12:14:20.310,4535,962.890625,277.34375,-138.671875,-0.437379510549779,-0.17592918860102844,0.03543018381548489,-1228,-1654,-1234,3878,310,100639
12:14:20.331,4536,953.125,273.4375,-137.6953125,-0.42394047530942264,-0.16493361431346415,0.03543018381548489,-1228,-1654,-1234,3878,310,100639
12:14:20.351,4537,947.265625,272.4609375,-136.71875,-0.437379510549779,-0.16126842288427604,0.04276056667386108,-1228,-1654,-1234,3878,310,100639
12:14:20.372,4538,942.3828125,272.4609375,-127.9296875,-0.43615778007338296,-0.16004669240788005,0.05375614096142535,-1233,-1664,-1232,3878,310,100639
12:14:20.382,4539,939.453125,265.625,-121.09375,-0.4654793115068877,-0.15271630954950383,0.058643062867009474,-1233,-1664,-1232,3878,310,100639
12:14:20.403,4540,943.359375,271.484375,-117.1875,-0.49968776484597655,-0.1356120828799594,0.09285151620609834,-1233,-1664,-1232,3878,310,100639
12:14:20.423,4541,950.1953125,278.3203125,-116.2109375,-0.4960225734167885,-0.12950343049797927,0.10262536001726659,-1233,-1664,-1232,3878,310,100639
12:14:20.444,4542,962.890625,282.2265625,-119.140625,-0.4618141200776996,-0.0830776723949301,0.12583823906879116,-1240,-1663,-1224,3878,310,100639
12:14:20.455,4543,969.7265625,291.9921875,-120.1171875,-0.4214970143566306,-0.07086036763096978,0.14049900478554353,-1240,-1663,-1224,3878,310,100639
12:14:20.475,4544,972.65625,292.96875,-128.90625,-0.37018433434799736,-0.04398229715025711,0.14905111812031577,-1240,-1663,-1224,3878,310,100639
12:14:20.496,4545,973.6328125,286.1328125,-127.9296875,-0.33719761148530447,-0.025656340004316647,0.1551597705022959,-1240,-1663,-1224,3878,310,100639
12:14:20.517,4546,976.5625,294.921875,-137.6953125,-0.3335324200561164,-0.03054326190990077,0.13316862192716736,-1240,-1663,-1224,3878,310,100639
12:14:20.527,4547,973.6328125,300.78125,-138.671875,-0.3384193419617005,-0.020769418098732523,0.08063421144213802,-1238,-1662,-1236,3878,310,100639
12:14:20.548,4548,970.703125,295.8984375,-143.5546875,-0.3323106895797204,-0.014660765716752368,0.04276056667386108,-1238,-1662,-1236,3878,310,100639
12:14:20.589,4549,973.6328125,289.0625,-148.4375,-0.34330626386728463,-0.020769418098732523,0.020769418098732523,-1238,-1662,-1236,3878,310,100639
12:14:20.610,4550,971.6796875,292.96875,-159.1796875,-0.33964107243809655,-0.02809980095710871,0.026878070480712675,-1238,-1662,-1236,3878,310,100639
12:14:20.620,4551,965.8203125,292.96875,-153.3203125,-0.3262020371977402,-0.03665191429188092,0.04276056667386108,-1238,-1662,-1236,3878,310,100639
12:14:20.641,4552,970.703125,298.828125,-150.390625,-0.2932153143350474,-0.05497787143782139,0.03420845333908886,-1237,-1661,-1226,3878,310,100639
12:14:20.661,4553,971.6796875,300.78125,-147.4609375,-0.2895501229058593,-0.06475171524898964,0.03665191429188092,-1237,-1661,-1226,3878,310,100639
12:14:20.682,4554,972.65625,303.7109375,-154.296875,-0.2724458962363148,-0.04153883619746505,-0.0024434609527920616,-1237,-1661,-1226,3878,310,100639
12:14:20.692,4555,969.7265625,295.8984375,-154.296875,-0.2651155133779387,-0.05009094953223726,-0.01710422666954443,-1237,-1661,-1226,3878,310,100639
12:14:20.713,4556,961.9140625,292.96875,-148.4375,-0.2687807048071268,-0.039095375244672985,-0.03665191429188092,-1234,-1663,-1228,3878,310,100639
12:14:20.733,4557,959.9609375,291.9921875,-154.296875,-0.2345722514680379,-0.025656340004316647,-0.03298672286269283,-1234,-1663,-1228,3878,310,100639
12:14:20.754,4558,952.1484375,291.9921875,-162.109375,-0.1820378409830086,-0.021991148575128554,-0.020769418098732523,-1234,-1663,-1228,3878,310,100639
12:14:20.764,4559,943.359375,290.0390625,-161.1328125,-0.1356120828799594,-0.013439035240356337,-0.0158824961931484,-1234,-1663,-1228,3878,310,100639
12:14:20.805,4560,946.2890625,285.15625,-159.1796875,-0.11850785621041499,-0.01832595714594046,-0.01832595714594046,-1234,-1663,-1228,3878,310,100639
12:14:20.825,4561,954.1015625,290.0390625,-157.2265625,-0.09040805525330627,-0.006108652381980153,-0.03420845333908886,-1236,-1661,-1224,3878,310,100639
12:14:20.846,4562,968.75,295.8984375,-161.1328125,-0.026878070480712675,-0.0012217304763960308,-0.019547687622336492,-1236,-1661,-1224,3878,310,100639
12:14:20.856,4563,963.8671875,296.875,-165.0390625,0.05742133239061345,-0.0024434609527920616,-0.0012217304763960308,-1236,-1661,-1224,3878,310,100639
12:14:20.876,4564,961.9140625,294.921875,-166.9921875,0.12461650859239513,-0.007330382858376184,0.024434609527920613,-1236,-1661,-1224,3878,310,100639
12:14:20.897,4565,974.609375,292.96875,-157.2265625,0.1392772743091475,-0.026878070480712675,0.0024434609527920616,-1236,-1661,-1224,3878,310,100639
12:14:20.918,4566,978.515625,296.875,-154.296875,0.10873401239924674,-0.05742133239061345,-0.009773843811168246,-1241,-1664,-1221,3878,310,100639
12:14:20.928,4567,961.9140625,301.7578125,-153.3203125,0.07574728953655392,-0.07086036763096978,-0.051312680008633295,-1241,-1664,-1221,3878,310,100639
12:14:20.948,4568,955.078125,302.734375,-148.4375,0.07696902001294993,-0.07574728953655392,-0.07574728953655392,-1241,-1664,-1221,3878,310,100639
12:14:20.968,4569,975.5859375,290.0390625,-137.6953125,0.06597344572538566,-0.07330382858376185,-0.09285151620609834,-1241,-1664,-1221,3878,310,100639
12:14:21.9,4570,985.3515625,293.9453125,-132.8125,0.052534410485029326,-0.09162978572970232,-0.1075122819228507,-1241,-1664,-1221,3878,310,100639
12:14:21.20,4571,986.328125,286.1328125,-127.9296875,0.05619960191421742,-0.09162978572970232,-0.12217304763960309,-1238,-1667,-1227,3878,310,100639
12:14:21.40,4572,995.1171875,279.296875,-125.0,0.06841690667817772,-0.09162978572970232,-0.12828170002158323,-1238,-1667,-1227,3878,310,100639
12:14:21.60,4573,1008.7890625,272.4609375,-125.9765625,0.10018189906447451,-0.07452555906015788,-0.0952949771588904,-1238,-1667,-1227,3878,310,100639
12:14:21.81,4574,999.0234375,271.484375,-132.8125,0.16737707526625623,-0.06963863715457375,-0.0476474885794452,-1238,-1667,-1227,3878,310,100639
12:14:21.101,4575,993.1640625,271.484375,-139.6484375,0.21258110289290938,-0.05619960191421742,-0.052534410485029326,-1233,-1665,-1224,3878,310,100639
12:14:21.112,4576,972.65625,267.578125,-135.7421875,0.26022859147235455,-0.04520402762665313,-0.0671951762017817,-1233,-1665,-1224,3878,310,100639
12:14:21.132,4577,954.1015625,259.765625,-143.5546875,0.29810223624063154,-0.05742133239061345,-0.08185594191853407,-1233,-1665,-1224,3890,310,100651
12:14:21.153,4578,953.125,245.1171875,-147.4609375,0.3005456971934236,-0.07452555906015788,-0.07574728953655392,-1233,-1665,-1224,3890,310,100651
12:14:21.173,4579,948.2421875,245.1171875,-134.765625,0.2419026343264141,-0.09040805525330627,-0.09040805525330627,-1233,-1665,-1224,3890,310,100651
12:14:21.183,4580,943.359375,245.1171875,-131.8359375,0.1893682238413848,-0.1038470904936626,-0.09407324668249437,-1239,-1667,-1240,3890,310,100651
12:14:21.224,4581,954.1015625,252.9296875,-121.09375,0.15393804002589986,-0.1148426647812269,-0.11728612573401895,-1239,-1667,-1240,3890,310,100651
12:14:21.244,4582,964.84375,247.0703125,-115.234375,0.1551597705022959,-0.09162978572970232,-0.1148426647812269,-1239,-1667,-1240,3890,310,100651
12:14:21.265,4583,970.703125,252.9296875,-115.234375,0.13805554383275148,-0.09285151620609834,-0.1038470904936626,-1239,-1667,-1240,3890,310,100651
12:14:21.275,4584,974.609375,249.0234375,-114.2578125,0.13805554383275148,-0.07330382858376185,-0.10140362954087055,-1239,-1667,-1240,3890,310,100651
12:14:21.296,4585,979.4921875,250.9765625,-115.234375,0.13683381335635544,-0.051312680008633295,-0.10140362954087055,-1237,-1664,-1229,3890,310,100651
12:14:21.316,4586,975.5859375,247.0703125,-117.1875,0.1551597705022959,-0.04153883619746505,-0.09773843811168245,-1237,-1664,-1229,3890,310,100651
12:14:21.337,4587,969.7265625,241.2109375,-121.09375,0.1551597705022959,-0.03054326190990077,-0.09040805525330627,-1237,-1664,-1229,3890,310,100651
12:14:21.347,4588,962.890625,237.3046875,-128.90625,0.09407324668249437,-0.012217304763960306,-0.09651670763528641,-1237,-1664,-1229,3890,310,100651
12:14:21.368,4589,954.1015625,238.28125,-130.859375,0.06475171524898964,-0.010995574287564277,-0.09651670763528641,-1229,-1664,-1213,3890,310,100651
12:14:21.388,4590,966.796875,240.234375,-129.8828125,0.04520402762665313,-0.009773843811168246,-0.09651670763528641,-1229,-1664,-1213,3890,310,100651
12:14:21.409,4591,964.84375,242.1875,-131.8359375,0.03420845333908886,-0.024434609527920613,-0.0830776723949301,-1229,-1664,-1213,3890,310,100651
12:14:21.430,4592,970.703125,233.3984375,-136.71875,0.009773843811168246,-0.0158824961931484,-0.08796459430051422,-1229,-1664,-1213,3890,310,100651
12:14:21.440,4593,976.5625,239.2578125,-137.6953125,-0.020769418098732523,-0.006108652381980153,-0.07574728953655392,-1229,-1664,-1213,3890,310,100651
12:14:21.460,4594,977.5390625,240.234375,-135.7421875,-0.04520402762665313,-0.019547687622336492,-0.06597344572538566,-1236,-1664,-1232,3890,310,100651
12:14:21.502,4595,977.5390625,239.2578125,-145.5078125,-0.07696902001294993,-0.0158824961931484,-0.05742133239061345,-1236,-1664,-1232,3890,310,100651
12:14:21.512,4596,972.65625,238.28125,-146.484375,-0.09285151620609834,0.007330382858376184,-0.0635299847725936,-1236,-1664,-1232,3890,310,100651
12:14:21.532,4597,961.9140625,239.2578125,-147.4609375,-0.07086036763096978,-0.007330382858376184,-0.05742133239061345,-1236,-1664,-1232,3890,310,100651
12:14:21.574,4598,954.1015625,241.2109375,-149.4140625,-0.04520402762665313,-0.3127630019573839,-0.026878070480712675,-1236,-1664,-1232,3890,310,100651
12:14:21.594,4599,953.125,235.3515625,-151.3671875,-0.04398229715025711,-0.006108652381980153,-0.010995574287564277,-1237,-1664,-1232,3890,310,100651
12:14:21.604,4600,957.03125,239.2578125,-151.3671875,-0.06963863715457375,-0.013439035240356337,-0.0158824961931484,-1237,-1664,-1232,3890,310,100651
12:14:21.625,4601,963.8671875,238.28125,-154.296875,-0.08185594191853407,-0.03298672286269283,0.019547687622336492,-1237,-1664,-1232,3890,310,100651
12:14:21.645,4602,978.515625,256.8359375,-155.2734375,-0.1038470904936626,-0.04642575810304917,0.025656340004316647,-1237,-1664,-1232,3890,310,100651
12:14:21.666,4603,985.3515625,256.8359375,-157.2265625,-0.1551597705022959,-0.05986479334340551,0.019547687622336492,-1233,-1668,-1237,3890,310,100651
12:14:21.686,4604,985.3515625,257.8125,-164.0625,-0.20525072003453318,-0.07696902001294993,0.0012217304763960308,-1233,-1668,-1237,3890,310,100651
12:14:21.696,4605,978.515625,264.6484375,-158.203125,-0.26022859147235455,-0.10506882097005865,-0.0317649923862968,-1233,-1668,-1237,3890,310,100651
12:14:21.717,4606,963.8671875,259.765625,-152.34375,-0.31764992386296803,-0.1343903524035634,-0.07452555906015788,-1233,-1668,-1237,3890,310,100651
12:14:21.738,4607,978.515625,247.0703125,-147.4609375,-0.3885102914939378,-0.1710422666954443,-0.10262536001726659,-1233,-1668,-1237,3890,310,100651
12:14:21.758,4608,988.28125,242.1875,-141.6015625,-0.475253155318056,-0.197920337176157,-0.1502728485967118,-1236,-1666,-1236,3890,310,100651
12:14:21.769,4609,985.3515625,245.1171875,-134.765625,-0.5375614096142536,-0.2076941809873252,-0.1734857276482364,-1236,-1666,-1236,3890,310,100651
12:14:21.789,4610,975.5859375,245.1171875,-130.859375,-0.5070181477043528,-0.1820378409830086,-0.1869247628885927,-1236,-1666,-1236,3890,310,100651
12:14:21.810,4611,972.65625,244.140625,-129.8828125,-0.43371431912059094,-0.17715091907742447,-0.11972958668681102,-1236,-1666,-1236,3890,310,100651
12:14:21.851,4612,960.9375,243.1640625,-123.046875,-0.35552356863124496,-0.1478293876439197,-0.06475171524898964,-1236,-1666,-1236,3890,310,100651
12:14:21.862,4613,955.078125,245.1171875,-127.9296875,-0.2871066619530672,-0.1466076571675237,-0.0024434609527920616,-1241,-1663,-1224,3890,310,100651
12:14:21.882,4614,958.0078125,251.953125,-141.6015625,-0.23335052099164189,-0.11728612573401895,0.04153883619746505,-1241,-1663,-1224,3890,310,100651
12:14:21.902,4615,960.9375,256.8359375,-152.34375,-0.1734857276482364,-0.0952949771588904,0.07574728953655392,-1241,-1663,-1224,3890,310,100651
12:14:21.923,4616,972.65625,251.953125,-148.4375,-0.16859880574265224,-0.09285151620609834,0.08429940287132612,-1241,-1663,-1224,3890,310,100651
12:14:21.933,4617,977.5390625,248.046875,-148.4375,-0.20525072003453318,-0.1233947781159991,0.0867428638241182,-1240,-1654,-1221,3890,310,100651
12:14:21.954,4618,983.3984375,251.953125,-146.484375,-0.28099800957108706,-0.1502728485967118,0.06841690667817772,-1240,-1654,-1221,3890,310,100651
12:14:21.994,4619,984.375,250.9765625,-146.484375,-0.3445279943436807,-0.1661553447898602,0.05009094953223726,-1240,-1654,-1221,3890,310,100651
12:14:22.15,4620,983.3984375,255.859375,-135.7421875,-0.38362336958835364,-0.17470745812463243,0.05497787143782139,-1240,-1654,-1221,3890,310,100651
12:14:22.25,4621,984.375,259.765625,-121.09375,-0.39706240482871,-0.1551597705022959,0.06597344572538566,-1240,-1654,-1221,3890,310,100651
12:14:22.46,4622,989.2578125,265.625,-117.1875,-0.37018433434799736,-0.1356120828799594,0.0830776723949301,-1238,-1658,-1219,3890,310,100651
12:14:22.66,4623,978.515625,265.625,-116.2109375,-0.34086280291449256,-0.12828170002158323,0.1038470904936626,-1238,-1658,-1219,3890,310,100651
12:14:22.87,4624,969.7265625,260.7421875,-118.1640625,-0.32375857624494814,-0.10873401239924674,0.10995574287564278,-1238,-1658,-1219,3890,310,100651
12:14:22.98,4625,972.65625,277.34375,-131.8359375,-0.3127630019573839,-0.0989601685880785,0.13194689145077132,-1238,-1658,-1219,3890,310,100651
12:14:22.118,4626,972.65625,276.3671875,-130.859375,-0.3005456971934236,-0.07574728953655392,0.14538592669112765,-1238,-1658,-1219,3890,310,100651
12:14:22.138,4627,973.6328125,269.53125,-126.953125,-0.31642819338657197,-0.0952949771588904,0.14416419621473164,-1241,-1667,-1207,3878,310,100652
12:14:22.159,4628,964.84375,278.3203125,-135.7421875,-0.3909537524467298,-0.10506882097005865,0.14049900478554353,-1241,-1667,-1207,3878,310,100652
12:14:22.180,4629,950.1953125,281.25,-138.671875,-0.41905355340383854,-0.1111774733520388,0.1111774733520388,-1241,-1667,-1207,3878,310,100652
12:14:22.190,4630,940.4296875,279.296875,-126.953125,-0.41416663149825445,-0.09773843811168245,0.08552113334772216,-1241,-1667,-1207,3878,310,100652
12:14:22.210,4631,931.640625,278.3203125,-124.0234375,-0.3872885610175418,-0.06963863715457375,0.0830776723949301,-1241,-1662,-1203,3878,310,100652
12:14:22.231,4632,934.5703125,282.2265625,-125.0,-0.3323106895797204,-0.029321531433504737,0.09407324668249437,-1241,-1662,-1203,3878,310,100652
12:14:22.261,4633,946.2890625,290.0390625,-125.9765625,-0.26022859147235455,-0.006108652381980153,0.11362093430483088,-1241,-1662,-1203,3878,310,100652
12:14:22.281,4634,960.9375,283.203125,-132.8125,-0.17837264955382048,0.013439035240356337,0.1356120828799594,-1241,-1662,-1203,3878,310,100652
12:14:22.302,4635,971.6796875,287.109375,-129.8828125,-0.0989601685880785,0.03665191429188092,0.1478293876439197,-1241,-1662,-1203,3878,310,100652
12:14:22.323,4636,966.796875,294.921875,-144.53125,-0.05009094953223726,0.0476474885794452,0.16126842288427604,-1244,-1669,-1213,3878,310,100652
12:14:22.344,4637,972.65625,303.7109375,-157.2265625,0.0158824961931484,0.06230825429619757,0.16737707526625623,-1244,-1669,-1213,3878,310,100652
12:14:22.354,4638,981.4453125,299.8046875,-154.296875,0.048869219055841226,0.058643062867009474,0.17470745812463243,-1244,-1669,-1213,3878,310,100652
12:14:22.374,4639,969.7265625,300.78125,-163.0859375,0.023212879051524585,0.03543018381548489,0.14416419621473164,-1244,-1669,-1213,3878,310,100652
12:14:22.415,4640,973.6328125,310.546875,-161.1328125,0.013439035240356337,0.021991148575128554,0.0952949771588904,-1244,-1669,-1213,3878,310,100652
12:14:22.425,4641,986.328125,307.6171875,-163.0859375,0.05619960191421742,0.009773843811168246,0.052534410485029326,-1235,-1676,-1230,3878,310,100652
12:14:22.446,4642,1000.9765625,304.6875,-167.96875,0.07208209810736582,0.003665191429188092,0.04153883619746505,-1235,-1676,-1230,3878,310,100652
12:14:22.466,4643,1000.0,308.59375,-169.921875,0.12950343049797927,0.003665191429188092,0.03298672286269283,-1235,-1676,-1230,3878,310,100652
12:14:22.487,4644,993.1640625,305.6640625,-162.109375,0.19303341527057283,-0.024434609527920613,0.019547687622336492,-1235,-1676,-1230,3878,310,100652
12:14:22.507,4645,981.4453125,303.7109375,-164.0625,0.23701571242082997,-0.01710422666954443,-0.004886921905584123,-1235,-1676,-1230,3878,310,100652
12:14:22.517,4646,964.84375,303.7109375,-166.9921875,0.29688050576423547,-0.020769418098732523,-0.013439035240356337,-1238,-1679,-1228,3878,310,100652
12:14:22.538,4647,957.03125,293.9453125,-176.7578125,0.3420845333908886,-0.0317649923862968,-0.03420845333908886,-1238,-1679,-1228,3878,310,100652
12:14:22.558,4648,958.0078125,294.921875,-173.828125,0.3652974124424132,-0.048869219055841226,-0.05742133239061345,-1238,-1679,-1228,3878,310,100652
12:14:22.579,4649,958.984375,280.2734375,-165.0390625,0.36041049053682905,-0.07330382858376185,-0.08429940287132612,-1238,-1679,-1228,3878,310,100652
12:14:22.589,4650,961.9140625,268.5546875,-158.203125,0.31154127148098787,-0.0989601685880785,-0.1466076571675237,-1243,-1680,-1222,3878,310,100652
12:14:22.609,4651,966.796875,267.578125,-154.296875,0.21258110289290938,-0.14049900478554353,-0.20402898955813717,-1243,-1680,-1222,3878,310,100652
12:14:22.630,4652,977.5390625,260.7421875,-136.71875,0.16126842288427604,-0.14905111812031577,-0.2577851305195625,-1243,-1680,-1222,3878,310,100652
12:14:22.681,4653,979.4921875,254.8828125,-128.90625,0.1661553447898602,-0.1502728485967118,-0.2907718533822553,-1243,-1680,-1222,3878,310,100652
12:14:22.701,4654,981.4453125,240.234375,-122.0703125,0.1661553447898602,-0.14538592669112765,-0.3078760800517997,-1243,-1680,-1222,3878,310,100652
12:14:22.722,4655,983.3984375,230.46875,-113.28125,0.16859880574265224,-0.1392772743091475,-0.3090978105281958,-1238,-1681,-1224,3878,310,100652
12:14:22.743,4656,979.4921875,215.8203125,-111.328125,0.16004669240788005,-0.13805554383275148,-0.3286454981505323,-1238,-1681,-1224,3878,310,100652
12:14:22.753,4657,978.515625,208.984375,-110.3515625,0.1429424657383356,-0.12461650859239513,-0.31887165433936404,-1238,-1681,-1224,3878,310,100652
12:14:22.773,4658,978.515625,205.078125,-109.375,0.12461650859239513,-0.1075122819228507,-0.3017674276698196,-1238,-1681,-1224,3878,310,100652
12:14:22.794,4659,984.375,201.171875,-106.4453125,0.09651670763528641,-0.09285151620609834,-0.2871066619530672,-1238,-1681,-1224,3878,310,100652
12:14:22.814,4660,987.3046875,199.21875,-107.421875,0.0830776723949301,-0.0952949771588904,-0.2528982086139784,-1234,-1675,-1234,3878,310,100652
12:14:22.834,4661,986.328125,195.3125,-110.3515625,0.05986479334340551,-0.08185594191853407,-0.24801128670839426,-1234,-1675,-1234,3878,310,100652
12:14:22.845,4662,986.328125,193.359375,-110.3515625,0.03054326190990077,-0.07086036763096978,-0.22602013813326569,-1234,-1675,-1234,3878,310,100652
12:14:22.866,4663,982.421875,190.4296875,-120.1171875,0.03543018381548489,-0.04031710572106901,-0.22602013813326569,-1234,-1675,-1234,3878,310,100652
12:14:22.886,4664,975.5859375,189.453125,-124.0234375,0.03298672286269283,-0.03054326190990077,-0.19914206765255302,-1240,-1664,-1223,3878,310,100652
12:14:22.907,4665,973.6328125,194.3359375,-127.9296875,0.039095375244672985,-0.008552113334772215,-0.15882496193148402,-1240,-1664,-1223,3878,310,100652
12:14:22.917,4666,973.6328125,193.359375,-136.71875,0.06230825429619757,-0.006108652381980153,-0.11728612573401895,-1240,-1664,-1223,3878,310,100652
12:14:22.938,4667,975.5859375,201.171875,-140.625,0.06963863715457375,0.0024434609527920616,-0.06108652381980154,-1240,-1664,-1223,3878,310,100652
12:14:22.959,4668,967.7734375,208.984375,-141.6015625,0.05497787143782139,-0.0012217304763960308,-0.03054326190990077,-1240,-1664,-1223,3878,310,100652
12:14:22.980,4669,964.84375,213.8671875,-148.4375,0.06108652381980154,0.0158824961931484,-0.01710422666954443,-1237,-1667,-1230,3878,310,100652
12:14:23.1,4670,970.703125,234.375,-146.484375,0.0671951762017817,0.014660765716752368,0.0,-1237,-1667,-1230,3878,310,100652
12:14:23.11,4671,970.703125,232.421875,-149.4140625,0.07330382858376185,0.021991148575128554,0.014660765716752368,-1237,-1667,-1230,3878,310,100652
12:14:23.32,4672,964.84375,239.2578125,-159.1796875,0.07330382858376185,0.029321531433504737,0.02809980095710871,-1237,-1667,-1230,3878,310,100652
12:14:23.52,4673,960.9375,241.2109375,-162.109375,0.051312680008633295,0.026878070480712675,0.048869219055841226,-1237,-1667,-1230,3878,310,100652
12:14:23.73,4674,962.890625,241.2109375,-159.1796875,-0.008552113334772215,0.008552113334772215,0.03420845333908886,-1238,-1665,-1213,3878,310,100652
12:14:23.104,4675,964.84375,242.1875,-155.2734375,-0.08796459430051422,-0.021991148575128554,0.009773843811168246,-1238,-1665,-1213,3878,310,100652
12:14:23.124,4676,967.7734375,245.1171875,-157.2265625,-0.1392772743091475,-0.021991148575128554,0.006108652381980153,-1238,-1665,-1213,3878,310,100652
12:14:23.145,4677,973.6328125,254.8828125,-149.4140625,-0.1233947781159991,-0.03054326190990077,0.014660765716752368,-1238,-1665,-1213,3878,310,100647
12:14:23.165,4678,971.6796875,262.6953125,-146.484375,-0.08185594191853407,-0.0317649923862968,0.03298672286269283,-1234,-1667,-1236,3878,310,100647
12:14:23.175,4679,969.7265625,264.6484375,-142.578125,-0.04520402762665313,-0.023212879051524585,0.026878070480712675,-1234,-1667,-1236,3878,310,100647
12:14:23.196,4680,973.6328125,262.6953125,-144.53125,-0.04031710572106901,-0.008552113334772215,0.012217304763960306,-1234,-1667,-1236,3878,310,100647
12:14:23.217,4681,968.75,263.671875,-148.4375,-0.05009094953223726,-0.008552113334772215,0.03054326190990077,-1234,-1667,-1236,3878,310,100647
12:14:23.249,4682,969.7265625,262.6953125,-144.53125,-0.06963863715457375,-0.019547687622336492,0.04031710572106901,-1234,-1667,-1236,3878,310,100647
12:14:23.269,4683,970.703125,270.5078125,-143.5546875,-0.0671951762017817,-0.03054326190990077,0.0476474885794452,-1240,-1671,-1250,3878,310,100647
12:14:23.290,4684,972.65625,276.3671875,-146.484375,-0.05497787143782139,-0.01710422666954443,0.03298672286269283,-1240,-1671,-1250,3878,310,100647
12:14:23.310,4685,975.5859375,274.4140625,-139.6484375,-0.048869219055841226,-0.04031710572106901,0.010995574287564277,-1240,-1671,-1250,3878,310,100647
12:14:23.320,4686,979.4921875,266.6015625,-126.953125,-0.09651670763528641,-0.051312680008633295,-0.009773843811168246,-1240,-1671,-1250,3878,310,100647
12:14:23.341,4687,978.515625,268.5546875,-125.9765625,-0.13316862192716736,-0.06475171524898964,-0.024434609527920613,-1240,-1671,-1250,3878,310,100647
12:14:23.362,4688,972.65625,275.390625,-125.9765625,-0.10995574287564278,-0.05986479334340551,-0.021991148575128554,-1237,-1674,-1240,3878,310,100647
12:14:23.382,4689,960.9375,275.390625,-124.0234375,-0.07696902001294993,-0.04031710572106901,-0.003665191429188092,-1237,-1674,-1240,3878,310,100647
12:14:23.402,4690,962.890625,271.484375,-120.1171875,-0.014660765716752368,-0.023212879051524585,-0.004886921905584123,-1237,-1674,-1240,3878,310,100647
12:14:23.413,4691,963.8671875,271.484375,-117.1875,-0.003665191429188092,-0.0158824961931484,-0.0012217304763960308,-1237,-1674,-1240,3878,310,100647
12:14:23.433,4692,964.84375,268.5546875,-115.234375,-0.007330382858376184,-0.01710422666954443,-0.021991148575128554,-1232,-1670,-1246,3878,310,100647
12:14:23.454,4693,978.515625,264.6484375,-115.234375,-0.051312680008633295,-0.01710422666954443,-0.023212879051524585,-1232,-1670,-1246,3878,310,100647
12:14:23.474,4694,985.3515625,267.578125,-110.3515625,-0.06841690667817772,-0.006108652381980153,-0.0317649923862968,-1232,-1670,-1246,3878,310,100647
12:14:23.484,4695,982.421875,274.4140625,-110.3515625,-0.06230825429619757,0.014660765716752368,-0.03665191429188092,-1232,-1670,-1246,3878,310,100647
12:14:23.526,4696,973.6328125,277.34375,-111.328125,0.0012217304763960308,0.01710422666954443,-0.03420845333908886,-1232,-1670,-1246,3878,310,100647
12:14:23.546,4697,967.7734375,271.484375,-110.3515625,0.05009094953223726,0.039095375244672985,-0.04398229715025711,-1234,-1676,-1256,3878,310,100647
12:14:23.567,4698,958.0078125,263.671875,-112.3046875,0.05742133239061345,0.05009094953223726,-0.0476474885794452,-1234,-1676,-1256,3878,310,100647
12:14:23.577,4699,978.515625,258.7890625,-107.421875,0.07208209810736582,0.04031710572106901,-0.03298672286269283,-1234,-1676,-1256,3878,310,100647
12:14:23.670,4700,985.3515625,255.859375,-101.5625,0.07086036763096978,0.0317649923862968,-0.03665191429188092,-1234,-1676,-1256,3878,310,100647
12:14:23.691,4701,983.3984375,241.2109375,-98.6328125,0.0635299847725936,0.06108652381980154,-0.052534410485029326,-1234,-1676,-1256,3878,310,100647
12:14:23.711,4702,981.4453125,234.375,-97.65625,-0.006108652381980153,0.0635299847725936,-0.04398229715025711,-1233,-1677,-1250,3878,310,100647
12:14:23.732,4703,975.5859375,239.2578125,-90.8203125,-0.07086036763096978,0.06963863715457375,-0.013439035240356337,-1233,-1677,-1250,3878,310,100647
12:14:23.743,4704,976.5625,263.671875,-106.4453125,-0.03665191429188092,0.08552113334772216,0.004886921905584123,-1233,-1677,-1250,3878,310,100647
12:14:23.763,4705,990.234375,287.109375,-107.421875,0.0671951762017817,0.09407324668249437,-0.0024434609527920616,-1233,-1677,-1250,3878,310,100647
12:14:23.783,4706,1009.765625,260.7421875,-115.234375,0.1233947781159991,0.08429940287132612,-0.014660765716752368,-1239,-1675,-1259,3878,310,100647
12:14:23.804,4707,1015.625,260.7421875,-118.1640625,0.07086036763096978,0.05497787143782139,-0.04520402762665313,-1239,-1675,-1259,3878,310,100647
12:14:23.814,4708,1002.9296875,251.953125,-121.09375,0.01710422666954443,0.03054326190990077,-0.07941248096574201,-1239,-1675,-1259,3878,310,100647
12:14:23.834,4709,1000.0,248.046875,-127.9296875,-0.03665191429188092,0.02809980095710871,-0.12583823906879116,-1239,-1675,-1259,3878,310,100647
12:14:23.854,4710,1000.9765625,249.0234375,-131.8359375,-0.06597344572538566,0.008552113334772215,-0.16126842288427604,-1239,-1675,-1259,3878,310,100647
12:14:23.875,4711,1001.953125,247.0703125,-128.90625,-0.07086036763096978,0.003665191429188092,-0.1734857276482364,-1233,-1670,-1265,3878,310,100647
12:14:23.896,4712,980.46875,243.1640625,-136.71875,-0.04153883619746505,0.0024434609527920616,-0.1734857276482364,-1233,-1670,-1265,3878,310,100647
12:14:23.906,4713,953.125,235.3515625,-136.71875,0.009773843811168246,-0.007330382858376184,-0.17592918860102844,-1233,-1670,-1265,3878,310,100647
12:14:23.926,4714,944.3359375,226.5625,-134.765625,0.039095375244672985,-0.0012217304763960308,-0.16737707526625623,-1233,-1670,-1265,3878,310,100647
12:14:23.946,4715,948.2421875,232.421875,-135.7421875,0.0671951762017817,-0.009773843811168246,-0.12583823906879116,-1233,-1670,-1265,3878,310,100647
12:14:23.967,4716,968.75,236.328125,-138.671875,0.08918632477691024,-0.025656340004316647,-0.0867428638241182,-1235,-1670,-1269,3878,310,100647
12:14:23.988,4717,990.234375,234.375,-124.0234375,0.09773843811168245,-0.04642575810304917,-0.05497787143782139,-1235,-1670,-1269,3878,310,100647
12:14:23.998,4718,988.28125,240.234375,-111.328125,0.06475171524898964,-0.06108652381980154,-0.03543018381548489,-1235,-1670,-1269,3878,310,100647
12:14:24.19,4719,979.4921875,250.9765625,-112.3046875,0.08918632477691024,-0.05986479334340551,-0.04520402762665313,-1235,-1670,-1269,3878,310,100647
12:14:24.40,4720,960.9375,263.671875,-116.2109375,0.1307251609743753,-0.04153883619746505,-0.058643062867009474,-1235,-1670,-1269,3878,310,100647
12:14:24.60,4721,957.03125,262.6953125,-115.234375,0.2138028333693054,-0.03665191429188092,-0.05009094953223726,-1238,-1669,-1256,3878,310,100647
12:14:24.70,4722,962.890625,249.0234375,-119.140625,0.2944370448114434,-0.025656340004316647,-0.03665191429188092,-1238,-1669,-1256,3878,310,100647
12:14:24.90,4723,967.7734375,222.65625,-117.1875,0.29688050576423547,-0.03787364476827696,-0.023212879051524585,-1238,-1669,-1256,3878,310,100647
12:14:24.111,4724,972.65625,215.8203125,-112.3046875,0.20158552860534507,-0.03420845333908886,-0.04398229715025711,-1238,-1669,-1256,3878,310,100647
12:14:24.132,4725,974.609375,223.6328125,-114.2578125,0.08063421144213802,-0.03787364476827696,-0.052534410485029326,-1229,-1670,-1266,3878,310,100647
12:14:24.143,4726,983.3984375,240.234375,-115.234375,0.04153883619746505,-0.020769418098732523,-0.07696902001294993,-1229,-1670,-1266,3878,310,100647
12:14:24.163,4727,989.2578125,246.09375,-112.3046875,0.0476474885794452,-0.007330382858376184,-0.09040805525330627,-1229,-1670,-1266,3890,310,100654
12:14:24.183,4728,988.28125,229.4921875,-112.3046875,0.03787364476827696,-0.010995574287564277,-0.08796459430051422,-1229,-1670,-1266,3890,310,100654
12:14:24.204,4729,982.421875,228.515625,-122.0703125,-0.012217304763960306,-0.02809980095710871,-0.07696902001294993,-1229,-1670,-1266,3890,310,100654
12:14:24.224,4730,968.75,233.3984375,-112.3046875,-0.04642575810304917,-0.04398229715025711,-0.048869219055841226,-1227,-1673,-1266,3890,310,100654
12:14:24.234,4731,961.9140625,235.3515625,-114.2578125,-0.07941248096574201,-0.05497787143782139,-0.04031710572106901,-1227,-1673,-1266,3890,310,100654
12:14:24.254,4732,955.078125,246.09375,-112.3046875,-0.10873401239924674,-0.05619960191421742,-0.03787364476827696,-1227,-1673,-1266,3890,310,100654
12:14:24.275,4733,953.125,250.9765625,-112.3046875,-0.1075122819228507,-0.04642575810304917,-0.025656340004316647,-1227,-1673,-1266,3890,310,100654
12:14:24.295,4734,965.8203125,253.90625,-105.46875,-0.10140362954087055,-0.0635299847725936,-0.023212879051524585,-1227,-1673,-1266,3890,310,100654
12:14:24.306,4735,977.5390625,249.0234375,-96.6796875,-0.11239920382843484,-0.05375614096142535,-0.01710422666954443,-1236,-1672,-1263,3890,310,100654
12:14:24.326,4736,984.375,258.7890625,-96.6796875,-0.10873401239924674,-0.05009094953223726,-0.012217304763960306,-1236,-1672,-1263,3890,310,100654
12:14:24.346,4737,984.375,259.765625,-93.75,-0.10140362954087055,-0.05375614096142535,-0.006108652381980153,-1236,-1672,-1263,3890,310,100654
12:14:24.367,4738,979.4921875,259.765625,-98.6328125,-0.12461650859239513,-0.03543018381548489,-0.03298672286269283,-1236,-1672,-1263,3890,310,100654
12:14:24.388,4739,971.6796875,264.6484375,-98.6328125,-0.1270599695451872,-0.03787364476827696,-0.029321531433504737,-1236,-1674,-1266,3890,310,100654
12:14:24.398,4740,972.65625,257.8125,-97.65625,-0.12095131716320705,-0.024434609527920613,-0.05009094953223726,-1236,-1674,-1266,3890,310,100654
12:14:24.419,4741,974.609375,256.8359375,-104.4921875,-0.12095131716320705,-0.03420845333908886,-0.05009094953223726,-1236,-1674,-1266,3890,310,100654
12:14:24.439,4742,978.515625,253.90625,-106.4453125,-0.15149457907310784,-0.03543018381548489,-0.051312680008633295,-1236,-1674,-1266,3890,310,100654
12:14:24.460,4743,976.5625,253.90625,-103.515625,-0.1954768762233649,-0.05009094953223726,-0.06597344572538566,-1236,-1674,-1266,3890,310,100654
12:14:24.470,4744,976.5625,258.7890625,-102.5390625,-0.23335052099164189,-0.058643062867009474,-0.06963863715457375,-1230,-1668,-1267,3890,310,100654
12:14:24.511,4745,976.5625,270.5078125,-105.46875,-0.22846359908605776,-0.04276056667386108,-0.06597344572538566,-1230,-1668,-1267,3890,310,100654
12:14:24.532,4746,974.609375,267.578125,-107.421875,-0.18081611050661253,-0.02809980095710871,-0.05619960191421742,-1230,-1668,-1267,3890,310,100654
12:14:24.552,4747,973.6328125,262.6953125,-104.4921875,-0.1148426647812269,-0.04276056667386108,-0.05497787143782139,-1230,-1668,-1267,3890,310,100654
12:14:24.563,4748,978.515625,264.6484375,-106.4453125,-0.09285151620609834,-0.04153883619746505,-0.039095375244672985,-1230,-1668,-1267,3890,310,100654
12:14:24.583,4749,976.5625,257.8125,-108.3984375,-0.10506882097005865,-0.04153883619746505,-0.04520402762665313,-1234,-1671,-1262,3890,310,100654
12:14:24.604,4750,987.3046875,269.53125,-108.3984375,-0.13805554383275148,-0.03787364476827696,-0.04276056667386108,-1234,-1671,-1262,3890,310,100654
12:14:24.624,4751,980.46875,267.578125,-112.3046875,-0.10018189906447451,-0.039095375244672985,-0.03054326190990077,-1234,-1671,-1262,3890,310,100654
12:14:24.654,4752,981.4453125,270.5078125,-110.3515625,-0.08063421144213802,-0.04520402762665313,-0.03787364476827696,-1234,-1671,-1262,3890,310,100654
12:14:24.674,4753,982.421875,257.8125,-107.421875,-0.08796459430051422,-0.0476474885794452,-0.05619960191421742,-1235,-1665,-1266,3890,310,100654
12:14:24.695,4754,977.5390625,255.859375,-114.2578125,-0.0952949771588904,-0.052534410485029326,-0.058643062867009474,-1235,-1665,-1266,3890,310,100654
12:14:24.716,4755,976.5625,259.765625,-113.28125,-0.1111774733520388,-0.06108652381980154,-0.03787364476827696,-1235,-1665,-1266,3890,310,100654
12:14:24.726,4756,974.609375,264.6484375,-104.4921875,-0.10873401239924674,-0.06108652381980154,-0.020769418098732523,-1235,-1665,-1266,3890,310,100654
12:14:24.746,4757,980.46875,266.6015625,-108.3984375,-0.08552113334772216,-0.06841690667817772,-0.0158824961931484,-1235,-1665,-1266,3890,310,100654
12:14:24.767,4758,980.46875,256.8359375,-104.4921875,-0.06230825429619757,-0.05742133239061345,-0.03298672286269283,-1230,-1668,-1269,3890,310,100654
12:14:24.788,4759,982.421875,260.7421875,-102.5390625,-0.07452555906015788,-0.06963863715457375,-0.03420845333908886,-1230,-1668,-1269,3890,310,100654
12:14:24.798,4760,982.421875,259.765625,-100.5859375,-0.1038470904936626,-0.07819075048934597,-0.021991148575128554,-1230,-1668,-1269,3890,310,100654
12:14:24.819,4761,984.375,261.71875,-98.6328125,-0.09773843811168245,-0.07452555906015788,-0.0158824961931484,-1230,-1668,-1269,3890,310,100654
12:14:24.839,4762,982.421875,259.765625,-99.609375,-0.09285151620609834,-0.07208209810736582,-0.02809980095710871,-1230,-1668,-1269,3890,310,100654
12:14:24.860,4763,976.5625,256.8359375,-98.6328125,-0.06963863715457375,-0.07696902001294993,-0.024434609527920613,-1233,-1664,-1263,3890,310,100654
12:14:24.870,4764,975.5859375,258.7890625,-103.515625,-0.09407324668249437,-0.07819075048934597,-0.02809980095710871,-1233,-1664,-1263,3890,310,100654
12:14:24.890,4765,977.5390625,264.6484375,-98.6328125,-0.09040805525330627,-0.07208209810736582,-0.03665191429188092,-1233,-1664,-1263,3890,310,100654
12:14:24.931,4766,975.5859375,254.8828125,-101.5625,-0.07941248096574201,-0.07330382858376185,-0.03054326190990077,-1233,-1664,-1263,3890,310,100654
12:14:24.952,4767,974.609375,253.90625,-104.4921875,-0.08429940287132612,-0.0671951762017817,-0.025656340004316647,-1235,-1670,-1279,3890,310,100654
12:14:24.962,4768,973.6328125,257.8125,-105.46875,-0.0830776723949301,-0.08185594191853407,0.0012217304763960308,-1235,-1670,-1279,3890,310,100654
12:14:24.983,4769,972.65625,262.6953125,-96.6796875,-0.06841690667817772,-0.07819075048934597,0.006108652381980153,-1235,-1670,-1279,3890,310,100654
12:14:25.3,4770,974.609375,253.90625,-98.6328125,-0.07574728953655392,-0.0830776723949301,-0.003665191429188092,-1235,-1670,-1279,3890,310,100654
12:14:25.24,4771,975.5859375,258.7890625,-96.6796875,-0.08063421144213802,-0.05986479334340551,-0.003665191429188092,-1235,-1670,-1279,3890,310,100654
12:14:25.34,4772,976.5625,262.6953125,-99.609375,-0.08552113334772216,-0.05986479334340551,-0.008552113334772215,-1230,-1670,-1274,3890,310,100654
12:14:25.74,4773,977.5390625,262.6953125,-99.609375,-0.0867428638241182,-0.07330382858376185,0.0,-1230,-1670,-1274,3890,310,100654
12:14:25.94,4774,976.5625,262.6953125,-97.65625,-0.08185594191853407,-0.06841690667817772,0.0012217304763960308,-1230,-1670,-1274,3890,310,100654
12:14:25.115,4775,979.4921875,262.6953125,-102.5390625,-0.07452555906015788,-0.06475171524898964,0.007330382858376184,-1230,-1670,-1274,3890,310,100654
12:14:25.125,4776,974.609375,264.6484375,-101.5625,-0.08918632477691024,-0.06841690667817772,-0.008552113334772215,-1230,-1670,-1274,3890,310,100654
12:14:25.146,4777,977.5390625,262.6953125,-99.609375,-0.08796459430051422,-0.0635299847725936,-0.007330382858376184,-1234,-1670,-1272,3890,310,100649
12:14:25.166,4778,976.5625,264.6484375,-97.65625,-0.09407324668249437,-0.06230825429619757,-0.0317649923862968,-1234,-1670,-1272,3890,310,100649
12:14:25.186,4779,977.5390625,261.71875,-94.7265625,-0.07452555906015788,-0.06963863715457375,-0.03420845333908886,-1234,-1670,-1272,3890,310,100649
12:14:25.207,4780,979.4921875,269.53125,-99.609375,-0.08429940287132612,-0.06841690667817772,-0.02809980095710871,-1234,-1670,-1272,3890,310,100649
12:14:25.217,4781,975.5859375,257.8125,-102.5390625,-0.09040805525330627,-0.06108652381980154,-0.03665191429188092,-1229,-1671,-1273,3890,310,100649
12:14:25.237,4782,973.6328125,262.6953125,-97.65625,-0.09285151620609834,-0.0635299847725936,-0.051312680008633295,-1229,-1671,-1273,3890,310,100649
12:14:25.258,4783,970.703125,259.765625,-101.5625,-0.08063421144213802,-0.06841690667817772,-0.048869219055841226,-1229,-1671,-1273,3890,310,100649
12:14:25.278,4784,974.609375,264.6484375,-105.46875,-0.07208209810736582,-0.06963863715457375,-0.04398229715025711,-1229,-1671,-1273,3890,310,100649
12:14:25.288,4785,979.4921875,253.90625,-102.5390625,-0.07941248096574201,-0.06841690667817772,-0.05497787143782139,-1229,-1671,-1273,3890,310,100649
12:14:25.309,4786,976.5625,263.671875,-105.46875,-0.0952949771588904,-0.07941248096574201,-0.05619960191421742,-1234,-1669,-1270,3890,310,100649
12:14:25.329,4787,980.46875,265.625,-100.5859375,-0.08918632477691024,-0.07452555906015788,-0.051312680008633295,-1234,-1669,-1270,3890,310,100649
12:14:25.350,4788,987.3046875,283.203125,-102.5390625,-0.05986479334340551,-0.07330382858376185,-0.06963863715457375,-1234,-1669,-1270,3890,310,100649
12:14:25.370,4789,989.2578125,309.5703125,-111.328125,-0.03298672286269283,-0.058643062867009474,-0.0989601685880785,-1234,-1669,-1270,3890,310,100649
12:14:25.380,4790,1017.578125,406.25,-85.9375,0.03787364476827696,-0.04153883619746505,-0.16982053621904827,-1234,-1669,-1270,3890,310,100649
12:14:25.420,4791,1029.296875,585.9375,-43.9453125,0.23212879051524585,-0.026878070480712675,-0.2944370448114434,-1231,-1676,-1272,3890,310,100649
12:14:25.441,4792,1028.3203125,765.625,-16.6015625,1.0421360963658144,0.02809980095710871,-0.6181956210563916,-1231,-1676,-1272,3890,310,100649
12:14:25.461,4793,1027.34375,773.4375,-33.203125,1.7592918860102844,0.07330382858376185,-0.9541715020653,-1231,-1676,-1272,3890,310,100649
12:14:25.492,4794,1029.296875,666.9921875,-98.6328125,2.2369885022811324,0.1502728485967118,-1.3292427583188815,-1231,-1676,-1272,3890,310,100649
12:14:25.512,4795,1000.9765625,599.609375,-218.75,2.08060700130244,0.18325957145940464,-1.6933184402848986,-1231,-1676,-1272,3890,310,100649
12:14:25.532,4796,1000.0,608.3984375,-273.4375,1.336573141177258,0.0830776723949301,-2.032959512722995,-1226,-1660,-1262,3890,310,100649
12:14:25.553,4797,1003.90625,754.8828125,-274.4140625,0.8503244115716375,-0.0635299847725936,-2.1771237089377267,-1226,-1660,-1262,3890,310,100649
12:14:25.563,4798,988.28125,901.3671875,-283.203125,0.8625417163355976,-0.2150245638457014,-2.2540927289506767,-1226,-1660,-1262,3890,310,100649
12:14:25.583,4799,978.515625,965.8203125,-324.21875,1.2767083478338521,-0.3384193419617005,-2.3542746280151516,-1226,-1660,-1262,3890,310,100649
12:14:25.604,4800,1004.8828125,1003.90625,-340.8203125,1.8289305231648578,-0.45814892864851153,-2.62549879377507,-1224,-1602,-1267,3890,310,100649
12:14:25.624,4801,1043.9453125,1051.7578125,-356.4453125,2.1209241070235096,-0.5424483315198376,-2.906496803346158,-1224,-1602,-1267,3890,310,100649
12:14:25.644,4802,1072.265625,1074.21875,-395.5078125,2.29318810419535,-0.6462954220135002,-3.178942699582472,-1224,-1602,-1267,3890,310,100649
12:14:25.654,4803,1055.6640625,1100.5859375,-417.96875,2.3603832803971314,-0.7990117315630041,-3.4501668653423905,-1224,-1602,-1267,3890,310,100649
12:14:25.675,4804,1029.296875,1158.203125,-490.234375,2.434908839457289,-1.0030407211211414,-3.732386605389874,-1224,-1602,-1267,3890,310,100649
12:14:25.695,4805,994.140625,1184.5703125,-541.9921875,2.5326472775689717,-1.1056660811384078,-3.958406743523139,-1250,-1514,-1255,3890,310,100649
12:14:25.716,4806,950.1953125,1159.1796875,-552.734375,2.7635543376078213,-1.2021827887736944,-4.1929789949911775,-1250,-1514,-1255,3890,310,100649
12:14:25.736,4807,868.1640625,1127.9296875,-544.921875,3.039665425273325,-1.3524556373704062,-4.383568949308958,-1250,-1514,-1255,3890,310,100649
12:14:25.767,4808,768.5546875,1067.3828125,-570.3125,3.219259805303541,-1.543045591688187,-4.471533543609473,-1250,-1514,-1255,3890,310,100649
12:14:25.788,4809,676.7578125,972.65625,-649.4140625,3.2461378757842536,-1.6811011355209384,-4.455651047416324,-1250,-1514,-1255,3890,310,100649
12:14:25.809,4810,593.75,884.765625,-669.921875,3.086091183376374,-1.786169956490997,-4.447098934081552,-1335,-1422,-1156,3890,310,100649
12:14:25.819,4811,535.15625,937.5,-666.015625,3.0921998357583536,-1.942551457469689,-4.404338367407691,-1335,-1422,-1156,3890,310,100649
12:14:25.839,4812,416.9921875,817.3828125,-645.5078125,3.435506099625639,-2.112371993688737,-4.2381830226178305,-1335,-1422,-1156,3890,310,100649
12:14:25.860,4813,309.5703125,664.0625,-625.0,3.500257814874628,-2.183232361319707,-4.05370172068203,-1335,-1422,-1156,3890,310,100649
12:14:25.880,4814,227.5390625,500.0,-634.765625,3.3389893919903524,-2.2540927289506767,-3.8325685044543483,-1475,-1401,-1048,3890,310,100649
12:14:25.911,4815,178.7109375,478.515625,-651.3671875,3.0885346443291652,-2.29318810419535,-3.580892026316766,-1475,-1401,-1048,3890,310,100649
12:14:25.931,4816,105.46875,493.1640625,-655.2734375,3.0005700500286516,-2.269975225143825,-3.2449161453078577,-1475,-1401,-1048,3890,310,100649
12:14:25.952,4817,91.796875,487.3046875,-658.203125,3.130073480526631,-2.262644842285449,-3.0115656243162157,-1475,-1401,-1048,3890,310,100649
12:14:25.972,4818,23.4375,250.0,-585.9375,3.0372219643205325,-2.1966713965600633,-2.775771642371782,-1475,-1401,-1048,3890,310,100649
12:14:25.992,4819,-62.5,203.125,-581.0546875,2.5350907385217636,-2.1526890994098062,-2.5546384261441,-1623,-1467,-948,3890,310,100649
12:14:26.3,4820,-141.6015625,133.7890625,-621.09375,2.0867156536844207,-2.061059313680104,-2.3200661746760622,-1623,-1467,-948,3890,310,100649
12:14:26.23,4821,-185.546875,136.71875,-601.5625,1.9559904927100453,-1.9193385784181645,-2.178345439414123,-1623,-1467,-948,3890,310,100649
12:14:26.44,4822,-228.515625,72.265625,-599.609375,2.0073031727186783,-1.7837264955382048,-2.0390681651049753,-1623,-1467,-948,3890,310,100649
12:14:26.64,4823,-306.640625,-64.453125,-536.1328125,2.021963938435431,-1.620014611701137,-1.8606955155511549,-1623,-1467,-948,3890,310,100649
12:14:26.84,4824,-380.859375,-164.0625,-466.796875,1.6823228659973344,-1.3683381335635545,-1.624901533606721,-1744,-1575,-922,3890,310,100649
12:14:26.95,4825,-426.7578125,-229.4921875,-487.3046875,1.2522737383059315,-1.112996463996784,-1.4538592669112766,-1744,-1575,-922,3890,310,100649
12:14:26.115,4826,-419.921875,-267.578125,-492.1875,0.8710938296703699,-0.8869763258635184,-1.2852604611686242,-1744,-1575,-922,3890,310,100649
12:14:26.136,4827,-439.453125,-280.2734375,-498.046875,0.55710909723659,-0.6450736915371041,-1.111774733520388,-1744,-1575,-922,3760,310,100648
12:14:26.156,4828,-474.609375,-258.7890625,-545.8984375,0.5632177496185702,-0.36651914291880927,-0.8979719001510825,-1813,-1655,-931,3760,310,100648
12:14:26.166,4829,-483.3984375,-286.1328125,-527.34375,0.7428121296487867,-0.18570303241219668,-0.7159340591680741,-1813,-1655,-931,3760,310,100648
12:14:26.187,4830,-502.9296875,-375.0,-492.1875,0.8759807515759541,0.07330382858376185,-0.5277875658030853,-1813,-1655,-931,3760,310,100648
12:14:26.207,4831,-532.2265625,-440.4296875,-493.1640625,0.8100073058505685,0.34086280291449256,-0.32131511529215606,-1813,-1655,-931,3760,310,100648
12:14:26.228,4832,-533.203125,-464.84375,-516.6015625,0.5070181477043528,0.6426302305843121,-0.10506882097005865,-1813,-1655,-931,3760,310,100648
12:14:26.259,4833,-515.625,-448.2421875,-597.65625,0.41783182292744253,0.8503244115716375,0.026878070480712675,-1820,-1694,-935,3760,310,100648
12:14:26.279,4834,-458.0078125,-389.6484375,-651.3671875,0.4422664324553632,1.067792436370131,0.15271630954950383,-1820,-1694,-935,3760,310,100648
12:14:26.300,4835,-424.8046875,-378.90625,-682.6171875,0.6023131248632432,1.2412781640183672,0.2846632010002752,-1820,-1694,-935,3760,310,100648
12:14:26.320,4836,-395.5078125,-411.1328125,-660.15625,0.6695083010650249,1.3842206297567028,0.4935791124639964,-1820,-1694,-935,3760,310,100648
12:14:26.330,4837,-331.0546875,-441.40625,-663.0859375,0.5778785153353226,1.4953981031087415,0.6646213791594408,-1820,-1694,-935,3760,310,100648
12:14:26.351,4838,-304.6875,-389.6484375,-686.5234375,0.39217548292312593,1.589471349791236,0.7904596182282319,-1787,-1720,-930,3760,310,100648
12:14:26.371,4839,-278.3203125,-329.1015625,-688.4765625,0.2516764781375823,1.6920967098085025,0.8955284391982905,-1787,-1720,-930,3760,310,100648
12:14:26.392,4840,-224.609375,-290.0390625,-731.4453125,0.3469714552964728,1.8484782107871944,1.0140362954087057,-1787,-1720,-930,3760,310,100648
12:14:26.413,4841,-97.65625,-252.9296875,-818.359375,0.5412266010434416,1.9682077974740058,1.0580185925589627,-1787,-1720,-930,3760,310,100648
12:14:26.423,4842,47.8515625,-256.8359375,-911.1328125,0.6426302305843121,1.9291124222293325,1.071457627799319,-1729,-1749,-920,3760,310,100648
12:14:26.464,4843,204.1015625,-297.8515625,-1057.6171875,0.5473352534254218,1.7519615031519082,1.0482447487477944,-1729,-1749,-920,3760,310,100648
12:14:26.484,4844,369.140625,-278.3203125,-1141.6015625,0.08185594191853407,1.1972958668681102,0.9822713030224087,-1729,-1749,-920,3760,310,100648
12:14:26.505,4845,408.203125,-210.9375,-1083.0078125,-0.3017674276698196,0.594982742004867,0.913854396344231,-1729,-1749,-920,3760,310,100648
12:14:26.515,4846,378.90625,-113.28125,-998.046875,-0.516791991515521,0.003665191429188092,0.7098254067860938,-1729,-1749,-920,3760,310,100648
12:14:26.535,4847,316.40625,-83.984375,-1001.953125,-0.6181956210563916,-0.43860124102617504,0.3384193419617005,-1672,-1755,-916,3760,310,100648
12:14:26.556,4848,267.578125,-92.7734375,-986.328125,-0.6670648401122328,-0.8491026810952413,-0.21991148575128555,-1672,-1755,-916,3760,310,100648
12:14:26.576,4849,180.6640625,-110.3515625,-970.703125,-0.6426302305843121,-1.0531316706533784,-0.597426202957659,-1672,-1755,-916,3760,310,100648
12:14:26.606,4850,140.625,-143.5546875,-978.515625,-0.4691445029360758,-1.225395667825219,-0.8222246106145287,-1672,-1755,-916,3760,310,100648
12:14:26.627,4851,95.703125,-198.2421875,-944.3359375,-0.38484510006474965,-1.3634512116579702,-0.9407324668249436,-1672,-1755,-916,3760,310,100648
12:14:26.647,4852,73.2421875,-213.8671875,-938.4765625,-0.42516220578581876,-1.5137240602546822,-0.9749409201640327,-1680,-1742,-928,3760,310,100648
12:14:26.667,4853,-2.9296875,-226.5625,-957.03125,-0.4691445029360758,-1.5980234631260082,-1.0054841820739333,-1680,-1742,-928,3760,310,100648
12:14:26.688,4854,-87.890625,-241.2109375,-919.921875,-0.6047565858160352,-1.6468926821818495,-1.0555751316061706,-1680,-1742,-928,3760,310,100648
12:14:26.698,4855,-138.671875,-263.671875,-889.6484375,-0.6609561877302527,-1.711644397430839,-1.03114052207825,-1680,-1742,-928,3760,310,100648
12:14:26.719,4856,-193.359375,-286.1328125,-848.6328125,-0.5424483315198376,-1.8081611050661255,-0.9187413182498152,-1728,-1728,-920,3760,310,100648
12:14:26.740,4857,-272.4609375,-296.875,-784.1796875,-0.4288273972150068,-1.8533651326927787,-0.7977900010866079,-1728,-1728,-920,3760,310,100648
12:14:26.761,4858,-424.8046875,-285.15625,-738.28125,-0.40194932673429407,-1.8435912888816104,-0.6499606134426883,-1728,-1728,-920,3760,310,100648
12:14:26.772,4859,-539.0625,-290.0390625,-657.2265625,-0.3872885610175418,-1.7702874602978487,-0.5436700619962337,-1728,-1728,-920,3760,310,100648
12:14:26.793,4860,-611.328125,-312.5,-612.3046875,-0.35552356863124496,-1.5723671231216916,-0.4544837372193235,-1728,-1728,-920,3760,310,100648
12:14:26.813,4861,-774.4140625,-316.40625,-586.9140625,-0.30543261909900765,-1.3597860202287821,-0.45204027626653137,-1798,-1720,-928,3760,310,100648
12:14:26.834,4862,-938.4765625,-332.03125,-559.5703125,-0.26267205242514663,-1.0995574287564276,-0.4202752838802346,-1798,-1720,-928,3760,310,100648
12:14:26.844,4863,-983.3984375,-372.0703125,-537.109375,-0.16982053621904827,-0.8833111344343304,-0.3652974124424132,-1798,-1720,-928,3760,310,100648
12:14:26.885,4864,-982.421875,-442.3828125,-541.9921875,-0.1307251609743753,-0.5778785153353226,-0.3005456971934236,-1798,-1720,-928,3760,310,100648
12:14:26.905,4865,-936.5234375,-479.4921875,-593.75,-0.10506882097005865,-0.39828413530510604,-0.24068090385001806,-1798,-1720,-928,3760,310,100648
12:14:26.925,4866,-883.7890625,-465.8203125,-609.375,-0.1392772743091475,-0.2528982086139784,-0.17959438003021652,-1843,-1719,-941,3760,310,100648
12:14:26.936,4867,-841.796875,-452.1484375,-628.90625,-0.10873401239924674,-0.16249015336067207,-0.10018189906447451,-1843,-1719,-941,3760,310,100648
12:14:26.956,4868,-804.6875,-442.3828125,-660.15625,0.01832595714594046,-0.06475171524898964,-0.019547687622336492,-1843,-1719,-941,3760,310,100648
12:14:26.977,4869,-738.28125,-436.5234375,-681.640625,0.058643062867009474,0.023212879051524585,-0.01710422666954443,-1843,-1719,-941,3760,310,100648
12:14:26.997,4870,-701.171875,-413.0859375,-712.890625,0.07086036763096978,0.07330382858376185,-0.008552113334772215,-1843,-1719,-941,3760,310,100648
12:14:27.28,4871,-679.6875,-395.5078125,-719.7265625,0.05742133239061345,0.08429940287132612,0.013439035240356337,-1850,-1712,-939,3760,310,100648
12:14:27.49,4872,-641.6015625,-378.90625,-733.3984375,0.009773843811168246,0.07452555906015788,0.07574728953655392,-1850,-1712,-939,3760,310,100648
12:14:27.69,4873,-603.515625,-361.328125,-740.234375,-0.03054326190990077,0.05742133239061345,0.13316862192716736,-1850,-1712,-939,3760,310,100648
12:14:27.89,4874,-554.6875,-340.8203125,-765.625,0.009773843811168246,0.03298672286269283,0.1820378409830086,-1850,-1712,-939,3760,310,100648
12:14:27.100,4875,-516.6015625,-312.5,-809.5703125,0.08429940287132612,-0.0012217304763960308,0.19914206765255302,-1847,-1720,-941,3760,310,100648
12:14:27.120,4876,-481.4453125,-312.5,-813.4765625,0.12217304763960309,-0.06475171524898964,0.2211332162276816,-1847,-1720,-941,3760,310,100648
12:14:27.140,4877,-457.03125,-321.2890625,-823.2421875,0.09162978572970232,-0.10018189906447451,0.22846359908605776,-1847,-1720,-941,3878,310,100645
12:14:27.161,4878,-402.34375,-312.5,-835.9375,0.06963863715457375,-0.15393804002589986,0.2651155133779387,-1847,-1720,-941,3878,310,100645
12:14:27.171,4879,-356.4453125,-334.9609375,-840.8203125,0.13194689145077132,-0.20891591146372127,0.3457497248200767,-1847,-1720,-941,3878,310,100645
12:14:27.192,4880,-336.9140625,-365.234375,-825.1953125,0.197920337176157,-0.31154127148098787,0.5009094953223726,-1847,-1721,-952,3878,310,100645
12:14:27.213,4881,-348.6328125,-417.96875,-817.3828125,0.16982053621904827,-0.4043927876870862,0.6719517620178169,-1847,-1721,-952,3878,310,100645
12:14:27.233,4882,-369.140625,-441.40625,-804.6875,0.12950343049797927,-0.42394047530942264,0.7977900010866079,-1847,-1721,-952,3878,310,100645
12:14:27.254,4883,-406.25,-454.1015625,-784.1796875,0.11606439525762292,-0.4410447019789671,0.9004153611038747,-1847,-1721,-952,3878,310,100645
12:14:27.265,4884,-466.796875,-441.40625,-759.765625,0.23945917337362205,-0.40805797911627434,1.0177014868378935,-1847,-1721,-952,3878,310,100645
12:14:27.285,4885,-554.6875,-451.171875,-722.65625,0.3530801076784529,-0.36651914291880927,1.1252137687607444,-1851,-1724,-950,3878,310,100645
12:14:27.305,4886,-638.671875,-431.640625,-721.6796875,0.4300491276914028,-0.3262020371977402,1.233947781159991,-1851,-1724,-950,3878,310,100645
12:14:27.326,4887,-690.4296875,-405.2734375,-692.3828125,0.4569271981721155,-0.27733281814189903,1.336573141177258,-1851,-1724,-950,3878,310,100645
12:14:27.377,4888,-724.609375,-386.71875,-673.828125,0.5033529562751646,-0.19303341527057283,1.4086552392846234,-1851,-1724,-950,3878,310,100645
12:14:27.397,4889,-742.1875,-362.3046875,-644.53125,0.5387831400906496,-0.09162978572970232,1.4465288840529003,-1879,-1718,-973,3878,310,100645
12:14:27.417,4890,-755.859375,-333.0078125,-621.09375,0.5693264020005504,-0.012217304763960306,1.4599679192932566,-1879,-1718,-973,3878,310,100645
12:14:27.427,4891,-779.296875,-274.4140625,-612.3046875,0.6328563867731439,0.04398229715025711,1.4831807983447813,-1879,-1718,-973,3878,310,100645
12:14:27.447,4892,-801.7578125,-250.9765625,-606.4453125,0.7073819458333017,0.10140362954087055,1.5296065564478305,-1879,-1718,-973,3878,310,100645
12:14:27.468,4893,-812.5,-277.34375,-574.21875,0.6853907972581733,0.1905899543177808,1.5735888535980878,-1879,-1718,-973,3878,310,100645
12:14:27.489,4894,-807.6171875,-284.1796875,-546.875,0.55100044485461,0.278554548618295,1.6285667250359088,-1887,-1718,-973,3878,310,100645
12:14:27.499,4895,-777.34375,-232.421875,-489.2578125,0.4838052686528282,0.33597588100890846,1.7238617021947995,-1887,-1718,-973,3878,310,100645
12:14:27.520,4896,-823.2421875,-206.0546875,-517.578125,0.5815437067645106,0.43371431912059094,1.82526533173567,-1887,-1718,-973,3878,310,100645
12:14:27.540,4897,-873.046875,-214.84375,-536.1328125,0.6230825429619757,0.5375614096142536,1.8729128203151153,-1887,-1718,-973,3878,310,100645
12:14:27.560,4898,-885.7421875,-189.453125,-554.6875,0.4410447019789671,0.6426302305843121,1.8594737850747587,-1887,-1718,-973,3878,310,100645
12:14:27.570,4899,-904.296875,-173.828125,-576.171875,0.2919935838586513,0.8026769229921922,1.826487062212066,-1884,-1712,-968,3878,310,100645
12:14:27.591,4900,-865.234375,-96.6796875,-614.2578125,0.238237442897226,0.9272934315845873,1.8057176441133334,-1884,-1712,-968,3878,310,100645
12:14:27.611,4901,-858.3984375,-41.015625,-668.9453125,0.2651155133779387,1.0323622525546459,1.8216001403064819,-1884,-1712,-968,3878,310,100645
12:14:27.632,4902,-832.03125,2.9296875,-701.171875,0.3029891581462157,1.1007791592328238,1.8777997422206991,-1884,-1712,-968,3878,310,100645
12:14:27.653,4903,-773.4375,20.5078125,-689.453125,0.3323106895797204,1.1838568316277538,1.9462166488988768,-1864,-1690,-942,3878,310,100645
12:14:27.663,4904,-672.8515625,41.9921875,-674.8046875,0.2895501229058593,1.303586418314565,2.0134118251006585,-1864,-1690,-942,3878,310,100645
12:14:27.683,4905,-549.8046875,89.84375,-654.296875,0.1820378409830086,1.430646387859752,2.0989329584483807,-1864,-1690,-942,3878,310,100645
12:14:27.724,4906,-432.6171875,146.484375,-658.203125,0.2431243648028101,1.5760323145508797,2.1978931270364592,-1864,-1690,-942,3878,310,100645
12:14:27.745,4907,-269.53125,269.53125,-766.6015625,0.3017674276698196,1.711644397430839,2.243097154663112,-1864,-1690,-942,3878,310,100645
12:14:27.755,4908,-106.4453125,282.2265625,-913.0859375,0.23701571242082997,1.8093828355425217,2.112371993688737,-1816,-1677,-925,3878,310,100645
12:14:27.775,4909,105.46875,357.421875,-996.09375,-0.06963863715457375,1.6982053621904827,1.6945401707612944,-1816,-1677,-925,3878,310,100645
12:14:27.796,4910,152.34375,417.96875,-1014.6484375,-0.1734857276482364,1.4159856221429996,1.3182471840313172,-1816,-1677,-925,3878,310,100645
12:14:27.816,4911,163.0859375,518.5546875,-1073.2421875,-0.03543018381548489,0.995710338262765,1.0018189906447452,-1816,-1677,-925,3878,310,100645
12:14:27.837,4912,135.7421875,446.2890625,-1101.5625,0.20036379812894903,0.5106833391335408,0.6352998477259361,-1816,-1677,-925,3878,310,100645
12:14:27.847,4913,79.1015625,380.859375,-1104.4921875,0.1429424657383356,-0.02809980095710871,0.10506882097005865,-1752,-1671,-925,3878,310,100645
12:14:27.868,4914,30.2734375,349.609375,-1043.9453125,-0.039095375244672985,-0.36651914291880927,-0.2895501229058593,-1752,-1671,-925,3878,310,100645
12:14:27.888,4915,-57.6171875,297.8515625,-972.65625,-0.11606439525762292,-0.6145304296272034,-0.6010913943868472,-1752,-1671,-925,3878,310,100645
12:14:27.909,4916,-151.3671875,289.0625,-927.734375,-0.1343903524035634,-0.7452555906015788,-0.8002334620394002,-1752,-1671,-925,3878,310,100645
12:14:27.940,4917,-208.984375,281.25,-957.03125,-0.0317649923862968,-0.8185594191853407,-0.950506310636112,-1730,-1668,-907,3878,310,100645
12:14:27.960,4918,-196.2890625,276.3671875,-974.609375,-0.004886921905584123,-0.8564330639536176,-1.0922270458980516,-1730,-1668,-907,3878,310,100645
12:14:27.981,4919,-155.2734375,261.71875,-929.6875,-0.1038470904936626,-0.9016370915802707,-1.2461650859239515,-1730,-1668,-907,3878,310,100645
12:14:28.1,4920,-192.3828125,256.8359375,-853.515625,-0.3029891581462157,-0.9517280411125081,-1.3829988992803068,-1730,-1668,-907,3878,310,100645
12:14:28.12,4921,-270.5078125,270.5078125,-873.046875,-0.475253155318056,-1.0274753306490618,-1.5980234631260082,-1730,-1668,-907,3878,310,100645
12:14:28.32,4922,-257.8125,348.6328125,-861.328125,-0.3799581781591656,-1.1105530030439918,-1.7886134174437889,-1763,-1677,-922,3878,310,100645
12:14:28.53,4923,-225.5859375,304.6875,-792.96875,-0.23945917337362205,-1.145983186859477,-1.9168951174653726,-1763,-1677,-922,3878,310,100645
12:14:28.73,4924,-443.359375,164.0625,-856.4453125,-0.23579398194443396,-1.1838568316277538,-2.0121900946242626,-1763,-1677,-922,3878,310,100645
12:14:28.83,4925,-485.3515625,61.5234375,-828.125,-0.37140606482439337,-1.2046262497264864,-2.084272192731629,-1763,-1677,-922,3878,310,100645
12:14:28.103,4926,-560.546875,-40.0390625,-734.375,-0.5998696639104512,-1.1643091440054174,-2.136806603216658,-1763,-1677,-922,3878,310,100645
12:14:28.123,4927,-611.328125,-3.90625,-674.8046875,-0.8552113334772216,-1.0946705068508435,-2.1600194822681824,-1807,-1680,-920,3878,310,100642
12:14:28.143,4928,-738.28125,-76.171875,-695.3125,-0.748920782030767,-1.0506882097005865,-2.0854939232080247,-1807,-1680,-920,3878,310,100642
12:14:28.164,4929,-788.0859375,-211.9140625,-711.9140625,-0.4935791124639964,-0.9627236154000722,-1.947438379375273,-1807,-1680,-920,3878,310,100642
12:14:28.174,4930,-856.4453125,-348.6328125,-695.3125,-0.4043927876870862,-0.8943067087218944,-1.7763961126798289,-1807,-1680,-920,3878,310,100642
12:14:28.215,4931,-916.015625,-408.203125,-652.34375,-0.45204027626653137,-0.7770205829878756,-1.5931365412204241,-1838,-1689,-946,3878,310,100642
12:14:28.235,4932,-902.34375,-430.6640625,-657.2265625,-0.48869219055841234,-0.6633996486830448,-1.385442360233099,-1838,-1689,-946,3878,310,100642
12:14:28.286,4933,-870.1171875,-423.828125,-677.734375,-0.4312708581677988,-0.49846603436958054,-1.145983186859477,-1838,-1689,-946,3878,310,100642
12:14:28.307,4934,-840.8203125,-439.453125,-694.3359375,-0.4166100924510465,-0.3726277953007894,-0.9773843811168247,-1838,-1689,-946,3878,310,100642
12:14:28.327,4935,-815.4296875,-398.4375,-697.265625,-0.41172317054546237,-0.2577851305195625,-0.833220184902093,-1838,-1689,-946,3878,310,100642
12:14:28.348,4936,-751.953125,-375.0,-703.125,-0.38362336958835364,-0.16126842288427604,-0.6939429105929455,-1861,-1695,-959,3878,310,100642
12:14:28.358,4937,-710.9375,-362.3046875,-720.703125,-0.4288273972150068,-0.10018189906447451,-0.5326744877086694,-1861,-1695,-959,3878,310,100642
12:14:28.379,4938,-655.2734375,-323.2421875,-758.7890625,-0.47403142484165994,-0.08918632477691024,-0.39461894387591795,-1861,-1695,-959,3878,310,100642
12:14:28.399,4939,-615.234375,-264.6484375,-747.0703125,-0.46303585055409563,-0.09773843811168245,-0.2712241657599188,-1861,-1695,-959,3878,310,100642
12:14:28.420,4940,-560.546875,-238.28125,-726.5625,-0.47403142484165994,-0.13194689145077132,-0.12217304763960309,-1861,-1695,-959,3878,310,100642
12:14:28.430,4941,-547.8515625,-208.0078125,-702.1484375,-0.4972443038931845,-0.16859880574265224,0.04520402762665313,-1863,-1695,-938,3878,310,100642
12:14:28.451,4942,-570.3125,-158.203125,-699.21875,-0.4312708581677988,-0.1942551457469689,0.1270599695451872,-1863,-1695,-938,3878,310,100642
