Timestamp,SampleNr,AccX [mg],AccY [mg],AccZ [mg],GyrX [rad/s],GyrY [rad/s],GyrZ [rad/s],MagX [mGs],MagY [mGs],-MagZ [mGs],Battery [mV],Temperature [0.1C],Pressure[Pa]
12:7:3.814,940,22.4609375,416.9921875,-903.3203125,-0.052534410485029326,-0.025656340004316647,0.021991148575128554,-2198,-2146,-2078,3820,317,100683
12:7:3.825,941,28.3203125,419.921875,-917.96875,-0.0317649923862968,-0.03054326190990077,0.04398229715025711,-2193,-2144,-2075,3820,317,100683
12:7:3.835,942,22.4609375,441.40625,-907.2265625,-0.004886921905584123,-0.023212879051524585,0.039095375244672985,-2196,-2144,-2073,3820,317,100683
12:7:3.855,943,18.5546875,437.5,-894.53125,0.0317649923862968,0.004886921905584123,0.039095375244672985,-2201,-2143,-2080,3820,317,100683
12:7:3.896,944,27.34375,404.296875,-901.3671875,0.008552113334772215,-0.006108652381980153,0.04153883619746505,-2198,-2146,-2072,3820,317,100683
12:7:3.907,945,24.4140625,404.296875,-899.4140625,-0.06475171524898964,-0.013439035240356337,0.008552113334772215,-2191,-2140,-2073,3820,317,100683
12:7:3.927,946,18.5546875,432.6171875,-901.3671875,-0.09651670763528641,-0.012217304763960306,0.029321531433504737,-2196,-2141,-2072,3820,317,100683
12:7:3.947,947,20.5078125,448.2421875,-905.2734375,-0.03543018381548489,-0.019547687622336492,0.03054326190990077,-2200,-2147,-2071,3820,317,100683
12:7:3.968,948,26.3671875,431.640625,-900.390625,0.026878070480712675,-0.013439035240356337,0.007330382858376184,-2195,-2144,-2070,3820,317,100683
12:7:3.989,949,37.109375,410.15625,-901.3671875,0.048869219055841226,-0.004886921905584123,0.006108652381980153,-2198,-2141,-2076,3820,317,100683
12:7:4.19,950,29.296875,404.296875,-898.4375,0.004886921905584123,0.012217304763960306,0.01832595714594046,-2196,-2144,-2068,3820,317,100683
12:7:4.40,951,28.3203125,423.828125,-900.390625,-0.0317649923862968,0.004886921905584123,0.0,-2200,-2142,-2075,3820,317,100683
12:7:4.61,952,24.4140625,442.3828125,-896.484375,-0.03665191429188092,-0.0024434609527920616,-0.01832595714594046,-2195,-2142,-2074,3814,317,100688
12:7:4.81,953,22.4609375,441.40625,-905.2734375,0.009773843811168246,-0.021991148575128554,-0.013439035240356337,-2205,-2148,-2065,3814,317,100688
12:7:4.92,954,29.296875,418.9453125,-911.1328125,0.02809980095710871,-0.029321531433504737,-0.009773843811168246,-2203,-2143,-2073,3814,317,100688
12:7:4.112,955,38.0859375,397.4609375,-915.0390625,0.0,-0.025656340004316647,-0.009773843811168246,-2194,-2142,-2081,3814,317,100688
12:7:4.132,956,31.25,422.8515625,-902.34375,-0.03420845333908886,-0.014660765716752368,-0.026878070480712675,-2202,-2146,-2076,3814,317,100688
12:7:4.153,957,23.4375,446.2890625,-905.2734375,0.012217304763960306,-0.012217304763960306,-0.01832595714594046,-2196,-2146,-2065,3814,317,100688
12:7:4.163,958,23.4375,437.5,-909.1796875,0.058643062867009474,-0.003665191429188092,0.0,-2200,-2146,-2066,3814,317,100688
12:7:4.183,959,20.5078125,410.15625,-901.3671875,0.03054326190990077,-0.014660765716752368,0.0024434609527920616,-2201,-2149,-2072,3814,317,100688
12:7:4.204,960,24.4140625,418.9453125,-894.53125,-0.006108652381980153,-0.02809980095710871,-0.006108652381980153,-2201,-2149,-2076,3814,317,100688
12:7:4.224,961,27.34375,404.296875,-906.25,-0.03054326190990077,-0.03420845333908886,-0.003665191429188092,-2199,-2144,-2070,3814,317,100688
12:7:4.245,962,18.5546875,415.0390625,-912.109375,-0.03420845333908886,-0.026878070480712675,0.0012217304763960308,-2181,-2142,-2065,3814,317,100688
12:7:4.255,963,20.5078125,440.4296875,-892.578125,0.023212879051524585,-0.01832595714594046,0.0,-2202,-2147,-2069,3814,317,100688
12:7:4.275,964,24.4140625,413.0859375,-895.5078125,0.03054326190990077,-0.006108652381980153,0.0012217304763960308,-2199,-2145,-2074,3814,317,100688
12:7:4.316,965,24.4140625,403.3203125,-904.296875,0.02809980095710871,-0.010995574287564277,0.0,-2201,-2146,-2068,3814,317,100688
12:7:4.336,966,19.53125,405.2734375,-889.6484375,-0.020769418098732523,0.014660765716752368,-0.021991148575128554,-2197,-2148,-2063,3814,317,100688
12:7:4.347,967,22.4609375,415.0390625,-898.4375,-0.0158824961931484,0.0024434609527920616,-0.012217304763960306,-2202,-2143,-2065,3814,317,100688
12:7:4.367,968,20.5078125,429.6875,-898.4375,-0.019547687622336492,0.007330382858376184,-0.010995574287564277,-2198,-2140,-2061,3814,317,100688
12:7:4.388,969,9.765625,450.1953125,-902.34375,0.023212879051524585,0.008552113334772215,-0.0012217304763960308,-2196,-2141,-2075,3814,317,100688
12:7:4.409,970,18.5546875,431.640625,-909.1796875,0.051312680008633295,0.010995574287564277,-0.003665191429188092,-2203,-2141,-2062,3814,317,100688
12:7:4.419,971,38.0859375,398.4375,-910.15625,-0.0012217304763960308,-0.003665191429188092,0.0024434609527920616,-2197,-2146,-2069,3814,317,100688
12:7:4.439,972,30.2734375,408.203125,-916.015625,-0.07574728953655392,-0.003665191429188092,-0.009773843811168246,-2195,-2145,-2069,3814,317,100688
12:7:4.460,973,24.4140625,433.59375,-902.34375,-0.04276056667386108,-0.007330382858376184,-0.007330382858376184,-2194,-2145,-2064,3814,317,100688
12:7:4.480,974,26.3671875,432.6171875,-902.34375,0.03787364476827696,-0.019547687622336492,0.0,-2198,-2148,-2063,3814,317,100688
12:7:4.491,975,34.1796875,402.34375,-913.0859375,0.01832595714594046,-0.003665191429188092,-0.004886921905584123,-2201,-2136,-2067,3814,317,100688
12:7:4.511,976,25.390625,425.78125,-912.109375,-0.029321531433504737,-0.019547687622336492,-0.01710422666954443,-2202,-2141,-2072,3814,317,100688
12:7:4.532,977,19.53125,439.453125,-910.15625,-0.014660765716752368,-0.023212879051524585,-0.0024434609527920616,-2200,-2139,-2071,3814,317,100688
12:7:4.553,978,16.6015625,436.5234375,-910.15625,0.03420845333908886,-0.024434609527920613,0.0,-2203,-2138,-2067,3814,317,100688
12:7:4.583,979,20.5078125,416.9921875,-904.296875,0.039095375244672985,-0.03420845333908886,0.0012217304763960308,-2202,-2144,-2065,3814,317,100688
12:7:4.604,980,20.5078125,416.015625,-895.5078125,-0.009773843811168246,-0.025656340004316647,-0.0158824961931484,-2202,-2149,-2076,3814,317,100688
12:7:4.624,981,24.4140625,404.296875,-898.4375,-0.03543018381548489,-0.03665191429188092,-0.0024434609527920616,-2198,-2145,-2064,3814,317,100688
12:7:4.644,982,19.53125,422.8515625,-914.0625,-0.04153883619746505,-0.04153883619746505,-0.0158824961931484,-2199,-2144,-2074,3814,317,100688
12:7:4.655,983,17.578125,420.8984375,-896.484375,-0.021991148575128554,-0.039095375244672985,0.0,-2194,-2141,-2059,3814,317,100688
12:7:4.675,984,14.6484375,433.59375,-887.6953125,-0.006108652381980153,-0.019547687622336492,-0.006108652381980153,-2206,-2145,-2063,3814,317,100688
12:7:4.696,985,15.625,413.0859375,-906.25,0.020769418098732523,-0.024434609527920613,0.0,-2203,-2143,-2068,3814,317,100688
12:7:4.737,986,15.625,415.0390625,-901.3671875,0.026878070480712675,-0.0317649923862968,-0.0024434609527920616,-2206,-2141,-2067,3814,317,100688
12:7:4.747,987,11.71875,436.5234375,-889.6484375,0.01832595714594046,-0.024434609527920613,-0.004886921905584123,-2201,-2144,-2067,3814,317,100688
12:7:4.768,988,8.7890625,422.8515625,-894.53125,0.012217304763960306,-0.013439035240356337,0.0024434609527920616,-2205,-2147,-2068,3814,317,100688
12:7:4.789,989,17.578125,407.2265625,-898.4375,-0.014660765716752368,-0.013439035240356337,-0.003665191429188092,-2202,-2144,-2071,3814,317,100688
12:7:4.809,990,14.6484375,416.015625,-902.34375,-0.029321531433504737,-0.03543018381548489,-0.0024434609527920616,-2195,-2143,-2062,3814,317,100688
12:7:4.820,991,14.6484375,427.734375,-899.4140625,0.007330382858376184,-0.03298672286269283,0.0012217304763960308,-2202,-2145,-2072,3814,317,100688
12:7:4.881,992,15.625,420.8984375,-907.2265625,0.021991148575128554,-0.007330382858376184,0.007330382858376184,-2202,-2142,-2064,3814,317,100688
12:7:4.902,993,15.625,442.3828125,-898.4375,0.008552113334772215,-0.014660765716752368,0.0,-2199,-2148,-2058,3814,317,100688
12:7:4.912,994,22.4609375,437.5,-899.4140625,0.007330382858376184,-0.004886921905584123,-0.004886921905584123,-2204,-2146,-2050,3814,317,100688
12:7:4.932,995,17.578125,425.78125,-914.0625,-0.008552113334772215,-0.023212879051524585,-0.003665191429188092,-2210,-2139,-2058,3814,317,100688
12:7:4.952,996,18.5546875,425.78125,-890.625,-0.025656340004316647,-0.014660765716752368,-0.007330382858376184,-2205,-2143,-2048,3814,317,100688
12:7:4.973,997,20.5078125,414.0625,-907.2265625,-0.012217304763960306,-0.014660765716752368,-0.0024434609527920616,-2187,-2140,-2070,3814,317,100688
12:7:4.983,998,14.6484375,416.015625,-910.15625,0.039095375244672985,-0.025656340004316647,0.0024434609527920616,-2202,-2141,-2069,3814,317,100688
12:7:5.3,999,21.484375,396.484375,-903.3203125,0.025656340004316647,-0.02809980095710871,0.007330382858376184,-2204,-2146,-2068,3814,317,100688
12:7:5.23,1000,15.625,418.9453125,-902.34375,0.013439035240356337,-0.014660765716752368,0.004886921905584123,-2210,-2144,-2065,3814,317,100688
12:7:5.44,1001,16.6015625,422.8515625,-895.5078125,0.0158824961931484,-0.024434609527920613,0.0,-2195,-2137,-2063,3814,317,100688
12:7:5.64,1002,12.6953125,424.8046875,-894.53125,0.019547687622336492,-0.0317649923862968,0.0,-2207,-2142,-2058,3820,317,100688
12:7:5.75,1003,2.9296875,426.7578125,-892.578125,0.014660765716752368,-0.01710422666954443,-0.006108652381980153,-2208,-2139,-2065,3820,317,100688
12:7:5.95,1004,6.8359375,407.2265625,-898.4375,0.0158824961931484,-0.026878070480712675,-0.006108652381980153,-2205,-2139,-2067,3820,317,100688
12:7:5.116,1005,4.8828125,410.15625,-903.3203125,-0.010995574287564277,-0.0317649923862968,-0.004886921905584123,-2206,-2144,-2074,3820,317,100688
12:7:5.136,1006,1.953125,431.640625,-900.390625,-0.025656340004316647,-0.026878070480712675,0.0,-2208,-2139,-2069,3820,317,100688
12:7:5.146,1007,12.6953125,429.6875,-894.53125,-0.03298672286269283,-0.003665191429188092,-0.003665191429188092,-2206,-2137,-2063,3820,317,100688
12:7:5.167,1008,20.5078125,422.8515625,-893.5546875,-0.029321531433504737,-0.008552113334772215,-0.0024434609527920616,-2208,-2138,-2069,3820,317,100688
12:7:5.188,1009,12.6953125,405.2734375,-898.4375,-0.05986479334340551,0.0024434609527920616,0.004886921905584123,-2201,-2139,-2062,3820,317,100688
12:7:5.209,1010,4.8828125,435.546875,-901.3671875,-0.029321531433504737,0.013439035240356337,-0.007330382858376184,-2192,-2139,-2067,3820,317,100688
12:7:5.220,1011,6.8359375,444.3359375,-903.3203125,0.04153883619746505,0.023212879051524585,0.025656340004316647,-2195,-2141,-2068,3820,317,100688
12:7:5.241,1012,27.34375,415.0390625,-896.484375,0.04276056667386108,0.01710422666954443,0.013439035240356337,-2203,-2139,-2071,3820,317,100688
12:7:5.262,1013,19.53125,400.390625,-904.296875,0.0024434609527920616,0.006108652381980153,-0.003665191429188092,-2208,-2144,-2081,3820,317,100688
12:7:5.303,1014,17.578125,415.0390625,-896.484375,-0.039095375244672985,0.009773843811168246,-0.006108652381980153,-2205,-2144,-2073,3820,317,100688
12:7:5.313,1015,11.71875,430.6640625,-905.2734375,-0.04398229715025711,-0.0012217304763960308,-0.0024434609527920616,-2206,-2149,-2077,3820,317,100688
12:7:5.333,1016,18.5546875,445.3125,-891.6015625,0.009773843811168246,0.009773843811168246,0.003665191429188092,-2211,-2144,-2059,3820,317,100688
12:7:5.354,1017,15.625,430.6640625,-906.25,0.026878070480712675,0.0158824961931484,0.003665191429188092,-2208,-2142,-2070,3820,317,100688
12:7:5.375,1018,6.8359375,404.296875,-901.3671875,-0.009773843811168246,0.013439035240356337,0.025656340004316647,-2198,-2141,-2073,3820,317,100688
12:7:5.385,1019,18.5546875,404.296875,-887.6953125,-0.05986479334340551,0.009773843811168246,0.008552113334772215,-2201,-2146,-2068,3820,317,100688
12:7:5.405,1020,4.8828125,435.546875,-892.578125,-0.052534410485029326,0.009773843811168246,0.009773843811168246,-2208,-2139,-2063,3820,317,100688
12:7:5.426,1021,7.8125,418.9453125,-882.8125,0.003665191429188092,0.03787364476827696,0.024434609527920613,-2207,-2142,-2064,3820,317,100688
12:7:5.446,1022,17.578125,396.484375,-883.7890625,0.012217304763960306,0.04031710572106901,0.03054326190990077,-2201,-2140,-2069,3820,317,100688
12:7:5.467,1023,14.6484375,397.4609375,-879.8828125,-0.009773843811168246,0.058643062867009474,0.039095375244672985,-2211,-2143,-2066,3820,317,100688
12:7:5.477,1024,7.8125,393.5546875,-871.09375,-0.07330382858376185,0.07819075048934597,0.04276056667386108,-2203,-2145,-2068,3820,317,100688
12:7:5.570,1025,13.671875,408.203125,-855.46875,-0.1148426647812269,0.12095131716320705,0.0317649923862968,-2189,-2140,-2068,3820,317,100688
12:7:5.591,1026,13.671875,419.921875,-860.3515625,-0.08185594191853407,0.11606439525762292,0.06108652381980154,-2205,-2148,-2059,3820,317,100688
12:7:5.611,1027,19.53125,408.203125,-858.3984375,-0.0476474885794452,0.15271630954950383,0.08185594191853407,-2203,-2145,-2061,3820,317,100688
12:7:5.621,1028,11.71875,430.6640625,-857.421875,-0.05375614096142535,0.19669860669976097,0.1038470904936626,-2195,-2142,-2063,3820,317,100688
12:7:5.641,1029,34.1796875,418.9453125,-858.3984375,-0.04520402762665313,0.23335052099164189,0.12950343049797927,-2198,-2139,-2055,3820,317,100688
12:7:5.662,1030,41.9921875,416.9921875,-861.328125,-0.008552113334772215,0.26267205242514663,0.1502728485967118,-2192,-2139,-2065,3820,317,100688
12:7:5.682,1031,40.0390625,402.34375,-837.890625,0.0012217304763960308,0.2932153143350474,0.1734857276482364,-2191,-2140,-2063,3820,317,100688
12:7:5.703,1032,42.96875,397.4609375,-845.703125,0.0,0.3262020371977402,0.1954768762233649,-2184,-2140,-2064,3820,317,100688
12:7:5.713,1033,53.7109375,397.4609375,-845.703125,-0.03054326190990077,0.36651914291880927,0.20525072003453318,-2182,-2143,-2065,3820,317,100688
12:7:5.733,1034,63.4765625,415.0390625,-846.6796875,-0.0830776723949301,0.4166100924510465,0.19914206765255302,-2182,-2142,-2064,3820,317,100688
12:7:5.753,1035,74.21875,439.453125,-852.5390625,-0.07819075048934597,0.4398229715025711,0.2223549467040776,-2183,-2140,-2069,3820,317,100688
12:7:5.774,1036,93.75,414.0625,-842.7734375,-0.03420845333908886,0.4654793115068877,0.23212879051524585,-2179,-2140,-2073,3820,317,100688
12:7:5.784,1037,101.5625,394.53125,-841.796875,-0.0635299847725936,0.4960225734167885,0.2528982086139784,-2170,-2140,-2064,3820,317,100688
12:7:5.804,1038,105.46875,404.296875,-839.84375,-0.06108652381980154,0.555887366760194,0.2724458962363148,-2167,-2138,-2057,3820,317,100688
12:7:5.825,1039,118.1640625,438.4765625,-824.21875,-0.05497787143782139,0.6267477343911638,0.27733281814189903,-2143,-2137,-2059,3820,317,100688
12:7:5.846,1040,139.6484375,414.0625,-841.796875,-0.01832595714594046,0.63407811724954,0.31520646291017596,-2146,-2140,-2059,3820,317,100688
12:7:5.866,1041,149.4140625,393.5546875,-825.1953125,-0.08429940287132612,0.6487388829662923,0.31642819338657197,-2148,-2137,-2064,3820,317,100688
12:7:5.877,1042,170.8984375,434.5703125,-801.7578125,-0.10873401239924674,0.6927211801165495,0.2944370448114434,-2138,-2139,-2072,3820,317,100688
12:7:5.897,1043,195.3125,419.921875,-812.5,-0.07696902001294993,0.7257079029792424,0.31764992386296803,-2128,-2137,-2060,3820,317,100688
12:7:5.917,1044,208.0078125,384.765625,-805.6640625,-0.10995574287564278,0.7635815477475193,0.3274237676741363,-2126,-2135,-2071,3820,317,100688
12:7:5.938,1045,212.890625,372.0703125,-828.125,-0.20402898955813717,0.7611380867947273,0.3298672286269283,-2118,-2135,-2071,3820,317,100688
12:7:5.948,1046,205.078125,462.890625,-819.3359375,-0.1148426647812269,0.839328837284073,0.29810223624063154,-2099,-2132,-2072,3820,317,100688
12:7:5.969,1047,255.859375,478.515625,-788.0859375,0.10262536001726659,0.8784242125287461,0.3481931857728688,-2104,-2135,-2078,3820,317,100688
12:7:5.989,1048,283.203125,416.015625,-799.8046875,0.1942551457469689,0.8967501696746865,0.3811799086355616,-2094,-2136,-2069,3820,317,100688
12:7:6.61,1049,280.2734375,410.15625,-812.5,0.06841690667817772,0.9480628496833199,0.35918876006043304,-2078,-2131,-2079,3820,317,100688
12:7:6.82,1050,333.984375,405.2734375,-793.9453125,-0.048869219055841226,0.9651670763528643,0.3274237676741363,-2069,-2133,-2074,3820,317,100688
12:7:6.102,1051,368.1640625,471.6796875,-793.9453125,0.03543018381548489,0.9883799554043888,0.3457497248200767,-2068,-2139,-2083,3820,317,100688
12:7:6.113,1052,351.5625,412.109375,-787.109375,0.05497787143782139,1.0177014868378935,0.3640756819660172,-2057,-2136,-2072,3814,317,100688
12:7:6.133,1053,348.6328125,394.53125,-765.625,0.010995574287564277,1.069014166846527,0.35796702958403703,-2050,-2134,-2072,3814,317,100688
12:7:6.154,1054,446.2890625,388.671875,-784.1796875,-0.05742133239061345,1.1056660811384078,0.32253684576855207,-2033,-2137,-2086,3814,317,100688
12:7:6.175,1055,423.828125,370.1171875,-743.1640625,-0.1233947781159991,1.1288789601899325,0.3738495257771854,-2029,-2141,-2084,3814,317,100688
12:7:6.195,1056,456.0546875,390.625,-749.0234375,-0.1429424657383356,1.1007791592328238,0.3738495257771854,-2015,-2144,-2082,3814,317,100688
12:7:6.206,1057,467.7734375,453.125,-750.0,-0.13683381335635544,1.1447614563830808,0.37018433434799736,-1991,-2137,-2099,3814,317,100688
12:7:6.226,1058,478.515625,418.9453125,-727.5390625,-0.0158824961931484,1.2009610582972983,0.4068362486398782,-1996,-2145,-2098,3814,317,100688
12:7:6.247,1059,538.0859375,345.703125,-725.5859375,-0.039095375244672985,1.1740829878165857,0.40927970959267035,-1988,-2144,-2098,3814,317,100688
12:7:6.267,1060,564.453125,375.9765625,-735.3515625,-0.03787364476827696,1.1814133706749619,0.3872885610175418,-1974,-2145,-2107,3814,317,100688
12:7:6.278,1061,599.609375,457.03125,-711.9140625,0.07452555906015788,1.225395667825219,0.4153883619746504,-1974,-2148,-2119,3814,317,100688
12:7:6.299,1062,584.9609375,404.296875,-661.1328125,0.16737707526625623,1.3096950706965451,0.45081854579013536,-1959,-2149,-2118,3814,317,100688
12:7:6.320,1063,643.5546875,348.6328125,-698.2421875,0.04520402762665313,1.26815623449908,0.42638393626221477,-1954,-2145,-2125,3814,317,100688
12:7:6.340,1064,659.1796875,377.9296875,-683.59375,-0.0989601685880785,1.2962560354561887,0.3726277953007894,-1942,-2151,-2126,3814,317,100688
12:7:6.360,1065,666.9921875,401.3671875,-706.0546875,-0.05497787143782139,1.2925908440270004,0.37629298672997746,-1927,-2156,-2137,3814,317,100688
12:7:6.371,1066,665.0390625,413.0859375,-654.296875,0.17470745812463243,1.2730431564046643,0.4679227724596798,-1922,-2157,-2143,3814,317,100688
12:7:6.392,1067,746.09375,343.75,-647.4609375,0.2748893571891069,1.5613715488341273,0.4862487296056202,-1905,-2155,-2154,3814,317,100688
12:7:6.412,1068,730.46875,344.7265625,-625.9765625,0.2687807048071268,1.269377964975476,0.477696616270848,-1899,-2166,-2154,3814,317,100688
12:7:6.433,1069,748.046875,289.0625,-622.0703125,0.08552113334772216,1.2644910430698917,0.4312708581677988,-1895,-2169,-2163,3814,317,100688
12:7:6.444,1070,773.4375,287.109375,-618.1640625,0.006108652381980153,1.225395667825219,0.3897320219703338,-1885,-2169,-2174,3814,317,100688
12:7:6.464,1071,822.265625,357.421875,-598.6328125,0.11606439525762292,1.1765264487693778,0.39461894387591795,-1874,-2170,-2179,3814,317,100688
12:7:6.486,1072,814.453125,353.515625,-566.40625,0.22724186860966175,1.1716395268637936,0.43371431912059094,-1865,-2171,-2177,3814,317,100688
12:7:6.506,1073,813.4765625,301.7578125,-522.4609375,0.1905899543177808,1.2034045192500902,0.42638393626221477,-1852,-2172,-2181,3814,317,100688
12:7:6.557,1074,864.2578125,272.4609375,-515.625,-0.0024434609527920616,1.2095131716320704,0.3469714552964728,-1838,-2177,-2203,3814,317,100688
12:7:6.578,1075,893.5546875,313.4765625,-547.8515625,-0.0830776723949301,1.145983186859477,0.31887165433936404,-1843,-2180,-2199,3814,317,100688
12:7:6.588,1076,883.7890625,294.921875,-527.34375,0.026878070480712675,1.1203268468551604,0.35552356863124496,-1835,-2184,-2222,3814,317,100688
12:7:6.609,1077,872.0703125,347.65625,-505.859375,0.1869247628885927,1.103222620185616,0.39461894387591795,-1825,-2187,-2228,3814,317,100688
12:7:6.630,1078,808.59375,373.046875,-421.875,0.20647245051092922,1.1679743354346053,0.39706240482871,-1819,-2189,-2231,3814,317,100688
12:7:6.650,1079,925.78125,282.2265625,-384.765625,0.10506882097005865,1.145983186859477,0.37507125625358145,-1814,-2196,-2244,3814,317,100688
12:7:6.671,1080,977.5390625,255.859375,-423.828125,0.012217304763960306,1.0897835849452593,0.3139847324337799,-1808,-2197,-2260,3814,317,100688
12:7:6.681,1081,992.1875,227.5390625,-441.40625,0.006108652381980153,1.0494664792241903,0.2822197400474831,-1803,-2198,-2257,3814,317,100688
12:7:6.701,1082,948.2421875,252.9296875,-422.8515625,0.006108652381980153,1.071457627799319,0.31154127148098787,-1802,-2200,-2269,3814,317,100688
12:7:6.722,1083,853.515625,305.6640625,-376.953125,0.07696902001294993,1.0800097411340912,0.31520646291017596,-1793,-2197,-2282,3814,317,100688
12:7:6.742,1084,887.6953125,296.875,-273.4375,0.0635299847725936,1.069014166846527,0.2944370448114434,-1785,-2199,-2281,3814,317,100688
12:7:6.752,1085,987.3046875,226.5625,-253.90625,0.01710422666954443,1.0604620535117548,0.21746802479849348,-1784,-2205,-2306,3814,317,100688
12:7:6.773,1086,1044.921875,195.3125,-287.109375,-0.07819075048934597,1.072679358275715,0.1356120828799594,-1778,-2208,-2298,3814,317,100688
12:7:6.793,1087,989.2578125,231.4453125,-322.265625,-0.1233947781159991,1.0592403230353586,0.15393804002589986,-1774,-2204,-2312,3814,317,100688
12:7:6.814,1088,934.5703125,243.1640625,-312.5,-0.15760323145508798,1.0225884087434776,0.1502728485967118,-1758,-2204,-2312,3814,317,100688
12:7:6.834,1089,966.796875,301.7578125,-254.8828125,-0.13316862192716736,1.0225884087434776,0.08918632477691024,-1768,-2204,-2332,3814,317,100688
12:7:6.844,1090,1021.484375,317.3828125,-195.3125,0.04398229715025711,1.0580185925589627,0.07819075048934597,-1761,-2207,-2337,3814,317,100688
12:7:6.864,1091,1079.1015625,278.3203125,-196.2890625,0.2675589743307307,1.1288789601899325,0.1270599695451872,-1759,-2210,-2349,3814,317,100688
12:7:6.885,1092,1056.640625,237.3046875,-193.359375,0.41416663149825445,1.1533135697178531,0.18325957145940464,-1758,-2210,-2347,3814,317,100688
12:7:6.905,1093,1034.1796875,161.1328125,-198.2421875,0.36041049053682905,1.1105530030439918,0.1893682238413848,-1753,-2208,-2358,3814,317,100688
12:7:6.977,1094,991.2109375,167.96875,-186.5234375,0.19181168479417682,1.0470230182713984,0.1710422666954443,-1751,-2207,-2369,3814,317,100688
12:7:6.998,1095,1004.8828125,249.0234375,-163.0859375,0.11362093430483088,1.0152580258851016,0.1343903524035634,-1734,-2209,-2383,3814,317,100688
12:7:7.8,1096,1027.34375,268.5546875,-90.8203125,0.10140362954087055,1.0445795573186063,0.1551597705022959,-1740,-2219,-2390,3814,317,100688
12:7:7.29,1097,1055.6640625,228.515625,-61.5234375,0.20891591146372127,1.0372491744602301,0.19669860669976097,-1735,-2218,-2399,3814,317,100688
12:7:7.49,1098,1068.359375,182.6171875,-83.0078125,0.2211332162276816,1.0274753306490618,0.2516764781375823,-1735,-2219,-2410,3814,317,100688
12:7:7.70,1099,1034.1796875,161.1328125,-102.5390625,0.16859880574265224,1.0164797563614976,0.278554548618295,-1737,-2218,-2411,3814,317,100688
12:7:7.80,1100,1000.9765625,160.15625,-83.984375,0.05986479334340551,0.9883799554043888,0.278554548618295,-1735,-2221,-2428,3814,317,100688
12:7:7.100,1101,1023.4375,168.9453125,-45.8984375,-0.010995574287564277,0.9468411192069238,0.27611108766550296,-1731,-2225,-2431,3814,317,100688
12:7:7.121,1102,1027.34375,173.828125,-7.8125,0.010995574287564277,0.8906415172927065,0.2700024352835228,-1708,-2220,-2450,3814,317,100690
12:7:7.172,1103,1033.203125,166.9921875,4.8828125,0.08918632477691024,0.8588765249064098,0.3017674276698196,-1725,-2226,-2447,3814,317,100690
12:7:7.326,1104,1032.2265625,142.578125,-0.0,0.10873401239924674,0.8234463410909247,0.28099800957108706,-1729,-2233,-2453,3814,317,100690
12:7:7.593,1105,1034.1796875,162.109375,-21.484375,0.06963863715457375,0.7696902001294993,0.2871066619530672,-1727,-2235,-2459,3814,317,100690
12:7:7.615,1106,1022.4609375,187.5,15.625,-0.051312680008633295,0.7586946258419351,0.27733281814189903,-1707,-2232,-2466,3814,317,100690
12:7:7.625,1107,1027.34375,192.3828125,32.2265625,-0.04642575810304917,0.6988298324985297,0.24801128670839426,-1729,-2240,-2470,3814,317,100690
12:7:7.646,1108,1029.296875,209.9609375,37.109375,-0.023212879051524585,0.6291911953439558,0.2113593724165133,-1726,-2239,-2479,3814,317,100690
12:7:7.666,1109,1028.3203125,217.7734375,51.7578125,0.0989601685880785,0.5791002458117186,0.1734857276482364,-1723,-2242,-2494,3814,317,100690
12:7:7.686,1110,1045.8984375,192.3828125,55.6640625,0.20891591146372127,0.5119050696099369,0.16126842288427604,-1728,-2240,-2483,3814,317,100690
12:7:7.707,1111,1047.8515625,166.9921875,54.6875,0.3029891581462157,0.48869219055841234,0.15760323145508798,-1722,-2244,-2494,3814,317,100690
12:7:7.717,1112,1063.4765625,160.15625,59.5703125,0.33108895910332437,0.4434881629317592,0.12217304763960309,-1729,-2243,-2504,3814,317,100690
12:7:7.738,1113,1069.3359375,143.5546875,70.3125,0.35185837720205687,0.3885102914939378,0.0867428638241182,-1727,-2247,-2511,3814,317,100690
12:7:7.759,1114,1059.5703125,142.578125,87.890625,0.3530801076784529,0.3286454981505323,0.05619960191421742,-1735,-2245,-2518,3814,317,100690
12:7:7.779,1115,1034.1796875,144.53125,114.2578125,0.3103195410045918,0.2956587752878394,0.03298672286269283,-1729,-2249,-2514,3814,317,100690
12:7:7.789,1116,1022.4609375,120.1171875,128.90625,0.3078760800517997,0.2467895562319982,0.05009094953223726,-1724,-2250,-2511,3814,317,100690
12:7:7.810,1117,1038.0859375,93.75,110.3515625,0.23335052099164189,0.1392772743091475,0.052534410485029326,-1727,-2250,-2523,3814,317,100690
12:7:7.831,1118,1027.34375,97.65625,94.7265625,0.1392772743091475,0.04031710572106901,0.006108652381980153,-1723,-2249,-2516,3814,317,100690
12:7:7.851,1124,982.421875,140.625,182.6171875,0.13316862192716736,-0.03787364476827696,0.020769418098732523,-1726,-2252,-2526,3814,317,100690
12:7:7.872,1134,1010.7421875,120.1171875,125.0,0.07819075048934597,-0.021991148575128554,-0.019547687622336492,-1708,-2243,-2523,3814,317,100690
12:7:7.883,1135,1020.5078125,114.2578125,125.9765625,0.07086036763096978,-0.05375614096142535,-0.021991148575128554,-1732,-2254,-2521,3814,317,100690
12:7:7.903,1136,1015.625,152.34375,133.7890625,0.014660765716752368,-0.029321531433504737,-0.020769418098732523,-1730,-2249,-2524,3814,317,100690
12:7:7.944,1137,1005.859375,163.0859375,162.109375,0.021991148575128554,-0.03420845333908886,-0.04153883619746505,-1726,-2247,-2534,3814,317,100690
12:7:7.955,1138,998.046875,158.203125,166.9921875,0.04031710572106901,-0.04520402762665313,-0.03665191429188092,-1710,-2250,-2524,3814,317,100690
12:7:7.975,1139,997.0703125,144.53125,147.4609375,0.0317649923862968,-0.06597344572538566,-0.04276056667386108,-1728,-2254,-2529,3814,317,100690
12:7:7.996,1140,999.0234375,148.4375,141.6015625,0.007330382858376184,-0.052534410485029326,-0.039095375244672985,-1728,-2246,-2508,3814,317,100690
12:7:8.16,1141,1003.90625,149.4140625,141.6015625,-0.021991148575128554,-0.048869219055841226,-0.029321531433504737,-1731,-2248,-2510,3814,317,100690
12:7:8.159,1142,1002.9296875,156.25,136.71875,0.006108652381980153,-0.03420845333908886,-0.029321531433504737,-1726,-2253,-2510,3814,317,100690
12:7:8.231,1143,998.046875,148.4375,140.625,0.012217304763960306,-0.04520402762665313,-0.020769418098732523,-1727,-2245,-2513,3814,317,100690
12:7:8.252,1144,1003.90625,166.9921875,135.7421875,0.026878070480712675,-0.04031710572106901,-0.021991148575128554,-1717,-2242,-2522,3814,317,100690
12:7:8.273,1145,999.0234375,155.2734375,159.1796875,0.0024434609527920616,-0.0158824961931484,-0.008552113334772215,-1725,-2252,-2514,3814,317,100690
12:7:8.283,1146,996.09375,145.5078125,144.53125,0.004886921905584123,-0.03665191429188092,-0.013439035240356337,-1727,-2248,-2513,3814,317,100690
12:7:8.304,1147,1000.0,146.484375,133.7890625,0.0024434609527920616,-0.026878070480712675,0.0,-1727,-2247,-2512,3814,317,100690
12:7:8.324,1148,1000.9765625,151.3671875,125.9765625,-0.014660765716752368,-0.051312680008633295,-0.0024434609527920616,-1730,-2249,-2508,3814,317,100690
12:7:8.345,1149,1001.953125,169.921875,144.53125,-0.021991148575128554,-0.023212879051524585,-0.029321531433504737,-1725,-2243,-2508,3814,317,100690
12:7:8.365,1150,1012.6953125,164.0625,139.6484375,0.014660765716752368,0.0,0.004886921905584123,-1726,-2247,-2513,3814,317,100690
12:7:8.375,1151,1000.9765625,143.5546875,133.7890625,0.04153883619746505,-0.009773843811168246,0.0,-1713,-2238,-2509,3814,317,100690
12:7:8.396,1152,1000.0,146.484375,128.90625,-0.0012217304763960308,-0.010995574287564277,-0.007330382858376184,-1727,-2239,-2523,3826,317,100692
12:7:8.438,1153,996.09375,153.3203125,141.6015625,-0.003665191429188092,-0.004886921905584123,-0.012217304763960306,-1729,-2242,-2512,3826,317,100692
12:7:8.448,1154,1002.9296875,165.0390625,143.5546875,-0.003665191429188092,-0.019547687622336492,-0.006108652381980153,-1725,-2243,-2518,3826,317,100692
12:7:8.581,1159,1002.9296875,168.9453125,147.4609375,-0.019547687622336492,0.0024434609527920616,-0.0012217304763960308,-1731,-2245,-2516,3826,317,100692
12:7:8.601,1165,993.1640625,162.109375,137.6953125,0.008552113334772215,0.0,-0.01832595714594046,-1725,-2242,-2521,3826,317,100692
12:7:8.623,1166,990.234375,161.1328125,130.859375,0.003665191429188092,-0.008552113334772215,-0.004886921905584123,-1730,-2243,-2526,3826,317,100692
12:7:8.633,1167,1000.0,148.4375,125.0,-0.025656340004316647,-0.01832595714594046,-0.004886921905584123,-1731,-2242,-2522,3826,317,100692
12:7:8.653,1168,1003.90625,146.484375,125.9765625,-0.010995574287564277,-0.01710422666954443,-0.01832595714594046,-1724,-2244,-2522,3826,317,100692
12:7:8.674,1169,1007.8125,153.3203125,127.9296875,0.0024434609527920616,-0.021991148575128554,0.0012217304763960308,-1719,-2236,-2513,3826,317,100692
12:7:8.859,1170,1005.859375,170.8984375,130.859375,0.020769418098732523,-0.01832595714594046,-0.013439035240356337,-1728,-2240,-2511,3826,317,100692
12:7:8.869,1171,1000.0,165.0390625,155.2734375,-0.0158824961931484,-0.01710422666954443,-0.019547687622336492,-1726,-2243,-2511,3826,317,100692
12:7:8.890,1172,998.046875,160.15625,136.71875,0.004886921905584123,-0.014660765716752368,-0.009773843811168246,-1721,-2240,-2524,3826,317,100692
12:7:8.911,1173,1003.90625,148.4375,126.953125,-0.0024434609527920616,0.0024434609527920616,-0.0024434609527920616,-1728,-2244,-2526,3826,317,100692
12:7:9.76,1174,1001.953125,156.25,134.765625,-0.026878070480712675,-0.009773843811168246,-0.003665191429188092,-1726,-2240,-2508,3826,317,100692
12:7:9.147,1175,1002.9296875,160.15625,119.140625,0.004886921905584123,-0.0012217304763960308,0.0012217304763960308,-1726,-2239,-2510,3826,317,100692
12:7:9.168,1176,1002.9296875,146.484375,132.8125,-0.007330382858376184,-0.01832595714594046,0.0,-1728,-2244,-2515,3826,317,100692
12:7:9.178,1177,1004.8828125,164.0625,136.71875,-0.010995574287564277,-0.006108652381980153,-0.004886921905584123,-1722,-2248,-2519,3826,317,100692
12:7:9.199,1178,999.0234375,155.2734375,137.6953125,-0.03787364476827696,0.0024434609527920616,0.0012217304763960308,-1727,-2244,-2502,3826,317,100692
12:7:9.220,1183,999.0234375,173.828125,130.859375,-0.021991148575128554,-0.012217304763960306,-0.004886921905584123,-1724,-2244,-2512,3826,317,100692
12:7:9.240,1184,1005.859375,181.640625,135.7421875,-0.014660765716752368,-0.009773843811168246,-0.007330382858376184,-1727,-2240,-2522,3826,317,100692
12:7:9.261,1185,1009.765625,156.25,137.6953125,0.004886921905584123,0.006108652381980153,0.008552113334772215,-1730,-2244,-2509,3826,317,100692
12:7:9.271,1186,996.09375,145.5078125,130.859375,0.02809980095710871,0.01710422666954443,0.009773843811168246,-1719,-2245,-2503,3826,317,100692
12:7:9.292,1187,1008.7890625,145.5078125,133.7890625,-0.006108652381980153,-0.006108652381980153,0.003665191429188092,-1725,-2243,-2518,3826,317,100692
12:7:9.496,1188,1000.0,160.15625,140.625,-0.03298672286269283,-0.0158824961931484,-0.003665191429188092,-1722,-2243,-2515,3826,317,100692
12:7:9.567,1197,1003.90625,153.3203125,123.046875,0.004886921905584123,-0.009773843811168246,-0.009773843811168246,-1715,-2241,-2523,3826,317,100692
12:7:9.588,1198,1001.953125,152.34375,127.9296875,-0.023212879051524585,-0.007330382858376184,0.010995574287564277,-1728,-2249,-2523,3826,317,100692
12:7:9.689,1199,1000.9765625,157.2265625,133.7890625,-0.021991148575128554,-0.0012217304763960308,0.004886921905584123,-1733,-2250,-2522,3826,317,100692
12:7:9.710,1200,1003.90625,163.0859375,136.71875,-0.0024434609527920616,-0.010995574287564277,-0.003665191429188092,-1726,-2245,-2518,3826,317,100692
12:7:9.730,1210,994.140625,153.3203125,126.953125,0.0024434609527920616,-0.021991148575128554,0.0,-1732,-2249,-2518,3826,317,100692
12:7:9.751,1211,1001.953125,155.2734375,136.71875,-0.021991148575128554,0.007330382858376184,-0.01710422666954443,-1703,-2235,-2515,3826,317,100692
12:7:9.761,1212,1006.8359375,147.4609375,135.7421875,-0.007330382858376184,-0.0012217304763960308,-0.007330382858376184,-1731,-2245,-2518,3826,317,100692
12:7:9.781,1213,1000.0,143.5546875,132.8125,0.0012217304763960308,-0.0158824961931484,-0.013439035240356337,-1732,-2244,-2519,3826,317,100692
12:7:9.802,1214,999.0234375,145.5078125,130.859375,-0.014660765716752368,-0.014660765716752368,-0.019547687622336492,-1730,-2239,-2517,3826,317,100692
12:7:9.823,1215,1002.9296875,159.1796875,131.8359375,-0.021991148575128554,0.0024434609527920616,-0.020769418098732523,-1731,-2243,-2511,3826,317,100692
12:7:9.833,1216,1003.90625,147.4609375,144.53125,-0.020769418098732523,-0.0024434609527920616,-0.020769418098732523,-1734,-2241,-2534,3826,317,100692
12:7:9.854,1217,1013.671875,150.390625,137.6953125,-0.03420845333908886,-0.009773843811168246,-0.024434609527920613,-1732,-2244,-2514,3826,317,100692
12:7:9.874,1218,1008.7890625,155.2734375,129.8828125,-0.04520402762665313,-0.008552113334772215,-0.020769418098732523,-1727,-2243,-2515,3826,317,100692
12:7:9.895,1222,1008.7890625,143.5546875,144.53125,-0.04276056667386108,-0.021991148575128554,-0.04153883619746505,-1734,-2248,-2511,3826,317,100692
12:7:9.987,1231,1001.953125,172.8515625,107.421875,0.039095375244672985,-0.06841690667817772,0.0024434609527920616,-1734,-2242,-2505,3826,317,100692
12:7:10.7,1232,1001.953125,165.0390625,113.28125,0.058643062867009474,-0.06475171524898964,0.0012217304763960308,-1736,-2241,-2507,3826,317,100692
12:7:10.17,1236,1011.71875,129.8828125,128.90625,-0.01710422666954443,-0.09773843811168245,-0.06475171524898964,-1735,-2244,-2513,3826,317,100692
12:7:10.38,1239,1003.90625,158.203125,110.3515625,-0.08796459430051422,-0.15149457907310784,-0.10506882097005865,-1704,-2229,-2506,3826,317,100692
12:7:10.59,1240,1000.9765625,161.1328125,111.328125,-0.08918632477691024,-0.1392772743091475,-0.1075122819228507,-1731,-2240,-2512,3826,317,100692
12:7:10.79,1241,993.1640625,171.875,95.703125,-0.058643062867009474,-0.16371188383706814,-0.09040805525330627,-1729,-2237,-2502,3826,317,100692
12:7:10.89,1242,978.515625,197.265625,109.375,-0.052534410485029326,-0.14538592669112765,-0.0867428638241182,-1728,-2238,-2496,3826,317,100692
12:7:10.183,1243,980.46875,189.453125,125.9765625,-0.052534410485029326,-0.13805554383275148,-0.08063421144213802,-1728,-2231,-2497,3826,317,100692
12:7:10.255,1244,997.0703125,166.9921875,113.28125,-0.026878070480712675,-0.12461650859239513,-0.06230825429619757,-1729,-2235,-2497,3826,317,100692
12:7:10.276,1245,991.2109375,162.109375,91.796875,-0.029321531433504737,-0.14905111812031577,-0.08063421144213802,-1728,-2234,-2498,3826,317,100692
12:7:10.296,1246,993.1640625,157.2265625,94.7265625,-0.07208209810736582,-0.1233947781159991,-0.07941248096574201,-1720,-2233,-2490,3826,317,100692
12:7:10.317,1247,997.0703125,166.015625,95.703125,-0.11606439525762292,-0.10140362954087055,-0.07574728953655392,-1731,-2235,-2499,3826,317,100692
12:7:10.327,1248,1006.8359375,163.0859375,95.703125,-0.12095131716320705,-0.1075122819228507,-0.08429940287132612,-1727,-2233,-2502,3826,317,100692
12:7:10.348,1249,1007.8125,163.0859375,107.421875,-0.12217304763960309,-0.10506882097005865,-0.07941248096574201,-1726,-2229,-2493,3826,317,100692
12:7:10.368,1251,1000.0,182.6171875,109.375,-0.0952949771588904,-0.052534410485029326,-0.058643062867009474,-1728,-2234,-2509,3826,317,100692
12:7:10.389,1253,1016.6015625,176.7578125,96.6796875,-0.11728612573401895,-0.06230825429619757,-0.03420845333908886,-1728,-2230,-2501,3826,317,100692
12:7:10.410,1254,1008.7890625,175.78125,95.703125,-0.13316862192716736,-0.04520402762665313,-0.023212879051524585,-1733,-2233,-2498,3826,317,100692
12:7:10.420,1255,1003.90625,178.7109375,96.6796875,-0.1270599695451872,-0.01710422666954443,-0.026878070480712675,-1730,-2232,-2486,3826,317,100692
12:7:10.440,1256,1000.9765625,163.0859375,91.796875,-0.12217304763960309,-0.020769418098732523,0.0,-1718,-2230,-2491,3826,317,100692
12:7:10.461,1257,1000.9765625,181.640625,94.7265625,-0.12095131716320705,-0.039095375244672985,-0.0158824961931484,-1729,-2227,-2490,3826,317,100692
12:7:10.482,1258,998.046875,179.6875,107.421875,-0.15638150097869194,-0.04031710572106901,-0.013439035240356337,-1724,-2225,-2485,3826,317,100692
12:7:10.492,1261,1008.7890625,148.4375,86.9140625,-0.20891591146372127,-0.04276056667386108,-0.05497787143782139,-1730,-2228,-2482,3826,317,100692
12:7:10.513,1263,1002.9296875,170.8984375,94.7265625,-0.2419026343264141,-0.0635299847725936,-0.07208209810736582,-1713,-2221,-2493,3826,317,100692
12:7:10.533,1264,997.0703125,179.6875,94.7265625,-0.2700024352835228,-0.0635299847725936,-0.07452555906015788,-1728,-2226,-2485,3826,317,100692
12:7:10.554,1267,993.1640625,166.9921875,78.125,-0.2846632010002752,-0.08185594191853407,-0.06230825429619757,-1710,-2217,-2493,3826,317,100692
12:7:10.604,1268,988.28125,168.9453125,85.9375,-0.31520646291017596,-0.08552113334772216,-0.07452555906015788,-1731,-2228,-2494,3826,317,100692
12:7:10.625,1269,997.0703125,170.8984375,86.9140625,-0.33964107243809655,-0.08185594191853407,-0.06475171524898964,-1733,-2229,-2479,3826,317,100692
12:7:10.645,1270,997.0703125,186.5234375,87.890625,-0.3457497248200767,-0.0952949771588904,-0.0635299847725936,-1725,-2227,-2485,3826,317,100692
12:7:10.655,1271,994.140625,188.4765625,84.9609375,-0.35674529910764097,-0.0989601685880785,-0.058643062867009474,-1727,-2222,-2482,3826,317,100692
12:7:10.676,1272,983.3984375,198.2421875,85.9375,-0.34086280291449256,-0.09040805525330627,-0.058643062867009474,-1729,-2228,-2472,3826,317,100692
12:7:10.696,1273,988.28125,200.1953125,78.125,-0.33964107243809655,-0.08918632477691024,-0.013439035240356337,-1731,-2228,-2483,3826,317,100692
12:7:10.717,1274,991.2109375,208.0078125,81.0546875,-0.3262020371977402,-0.07941248096574201,-0.010995574287564277,-1722,-2222,-2478,3826,317,100692
12:7:10.737,1275,990.234375,215.8203125,83.984375,-0.3323106895797204,-0.05009094953223726,0.004886921905584123,-1733,-2223,-2469,3826,317,100692
12:7:10.747,1276,990.234375,220.703125,92.7734375,-0.29810223624063154,-0.052534410485029326,0.023212879051524585,-1731,-2219,-2472,3826,317,100692
12:7:10.768,1277,998.046875,219.7265625,84.9609375,-0.2504547476611863,-0.021991148575128554,0.04276056667386108,-1725,-2219,-2480,3826,317,100692
12:7:10.789,1278,995.1171875,235.3515625,74.21875,-0.2076941809873252,-0.013439035240356337,0.052534410485029326,-1730,-2219,-2477,3826,317,100692
12:7:10.809,1279,991.2109375,244.140625,78.125,-0.20036379812894903,0.0024434609527920616,0.09162978572970232,-1736,-2222,-2474,3826,317,100692
12:7:10.829,1280,997.0703125,252.9296875,83.0078125,-0.16126842288427604,0.02809980095710871,0.11239920382843484,-1731,-2218,-2476,3826,317,100692
12:7:10.902,1281,993.1640625,241.2109375,79.1015625,-0.1307251609743753,0.07086036763096978,0.10140362954087055,-1732,-2221,-2468,3826,317,100692
12:7:10.912,1282,998.046875,208.984375,88.8671875,-0.1148426647812269,0.0867428638241182,0.07452555906015788,-1732,-2221,-2480,3826,317,100692
12:7:10.933,1284,1008.7890625,169.921875,89.84375,-0.11972958668681102,0.11850785621041499,0.019547687622336492,-1721,-2222,-2478,3826,317,100692
12:7:11.25,1285,1005.859375,149.4140625,73.2421875,-0.14416419621473164,0.0989601685880785,0.008552113334772215,-1731,-2223,-2485,3826,317,100692
12:7:11.45,1286,1000.9765625,153.3203125,72.265625,-0.18570303241219668,0.07330382858376185,-0.012217304763960306,-1729,-2222,-2484,3826,317,100692
12:7:11.65,1287,1000.0,184.5703125,82.03125,-0.1954768762233649,0.03054326190990077,-0.024434609527920613,-1734,-2222,-2485,3826,317,100692
12:7:11.75,1288,986.328125,192.3828125,90.8203125,-0.19181168479417682,0.05375614096142535,-0.05009094953223726,-1731,-2226,-2479,3826,317,100692
12:7:11.95,1289,971.6796875,220.703125,85.9375,-0.14172073526193957,0.0317649923862968,-0.039095375244672985,-1730,-2226,-2475,3826,317,100692
12:7:11.117,1290,969.7265625,235.3515625,103.515625,-0.12217304763960309,0.04520402762665313,-0.05009094953223726,-1734,-2226,-2490,3826,317,100692
12:7:11.168,1291,979.4921875,268.5546875,111.328125,-0.09162978572970232,0.01710422666954443,-0.03665191429188092,-1726,-2222,-2484,3826,317,100692
12:7:11.239,1292,998.046875,265.625,102.5390625,-0.0671951762017817,0.039095375244672985,-0.010995574287564277,-1734,-2217,-2477,3826,317,100692
12:7:11.260,1293,1002.9296875,269.53125,90.8203125,-0.008552113334772215,0.02809980095710871,0.006108652381980153,-1731,-2225,-2484,3826,317,100692
12:7:11.280,1294,1011.71875,264.6484375,83.984375,0.0830776723949301,0.03298672286269283,0.04276056667386108,-1729,-2219,-2477,3826,317,100692
12:7:11.300,1295,1005.859375,243.1640625,84.9609375,0.1661553447898602,0.03298672286269283,0.07574728953655392,-1731,-2221,-2480,3826,317,100692
12:7:11.321,1296,1005.859375,218.75,94.7265625,0.22724186860966175,0.0476474885794452,0.10262536001726659,-1733,-2219,-2476,3826,317,100692
12:7:11.331,1298,998.046875,205.078125,86.9140625,0.2553416695667704,0.039095375244672985,0.06230825429619757,-1729,-2227,-2487,3826,317,100692
12:7:11.351,1299,976.5625,206.0546875,104.4921875,0.21746802479849348,0.048869219055841226,0.029321531433504737,-1734,-2221,-2486,3826,317,100692
12:7:11.372,1303,985.3515625,257.8125,93.75,0.27733281814189903,0.04031710572106901,-0.008552113334772215,-1727,-2225,-2494,3826,317,100692
12:7:11.392,1305,1010.7421875,229.4921875,116.2109375,0.3640756819660172,0.09285151620609834,-0.0024434609527920616,-1708,-2220,-2485,3826,317,100692
12:7:11.402,1306,1034.1796875,231.4453125,125.0,0.3872885610175418,0.052534410485029326,-0.007330382858376184,-1728,-2231,-2481,3826,317,100692
12:7:11.422,1307,1023.4375,242.1875,124.0234375,0.4398229715025711,0.048869219055841226,0.012217304763960306,-1724,-2223,-2499,3826,317,100692
12:7:11.443,1308,1033.203125,214.84375,125.9765625,0.4715879638888679,0.06230825429619757,0.039095375244672985,-1728,-2224,-2502,3826,317,100692
12:7:11.464,1309,1037.109375,222.65625,123.046875,0.5265658353266892,0.05375614096142535,0.048869219055841226,-1732,-2226,-2491,3826,317,100692
12:7:11.484,1310,1034.1796875,238.28125,124.0234375,0.6096435077216195,0.04031710572106901,0.09040805525330627,-1734,-2232,-2501,3826,317,100692
12:7:11.494,1315,985.3515625,97.65625,121.09375,0.5363396791378575,0.0158824961931484,-0.052534410485029326,-1729,-2230,-2503,3826,317,100692
12:7:11.515,1316,987.3046875,88.8671875,109.375,0.46670104198328377,0.004886921905584123,-0.09651670763528641,-1731,-2234,-2494,3826,317,100692
12:7:11.536,1317,988.28125,108.3984375,103.515625,0.3811799086355616,-0.0024434609527920616,-0.10262536001726659,-1731,-2226,-2505,3826,317,100692
12:7:11.557,1318,992.1875,144.53125,111.328125,0.31154127148098787,-0.009773843811168246,-0.13194689145077132,-1724,-2223,-2506,3826,317,100692
12:7:11.567,1319,1001.953125,179.6875,109.375,0.29932396671702755,0.29688050576423547,-0.1148426647812269,-1708,-2217,-2502,3826,317,100692
12:7:11.587,1320,1028.3203125,184.5703125,107.421875,0.27977627909469105,0.007330382858376184,-0.10140362954087055,-1723,-2223,-2500,3826,317,100692
12:7:11.608,1321,1026.3671875,190.4296875,113.28125,0.2944370448114434,0.0317649923862968,-0.07941248096574201,-1731,-2226,-2511,3826,317,100692
12:7:11.628,1322,1008.7890625,184.5703125,111.328125,0.3139847324337799,0.03420845333908886,-0.052534410485029326,-1728,-2222,-2510,3826,317,100692
12:7:11.649,1323,1001.953125,169.921875,115.234375,0.32498030672134415,0.0317649923862968,-0.029321531433504737,-1718,-2220,-2502,3826,317,100692
12:7:11.659,1324,1002.9296875,157.2265625,114.2578125,0.30543261909900765,0.04276056667386108,-0.03543018381548489,-1726,-2229,-2499,3826,317,100692
12:7:11.680,1325,1005.859375,146.484375,107.421875,0.26022859147235455,0.03054326190990077,-0.013439035240356337,-1721,-2227,-2500,3826,317,100692
12:7:11.700,1326,1002.9296875,134.765625,103.515625,0.17837264955382048,0.03665191429188092,-0.0158824961931484,-1727,-2223,-2503,3826,317,100692
12:7:11.721,1327,996.09375,147.4609375,97.65625,0.1270599695451872,0.010995574287564277,0.008552113334772215,-1724,-2221,-2506,3826,317,100692
12:7:11.731,1328,994.140625,164.0625,94.7265625,0.1038470904936626,0.01832595714594046,0.003665191429188092,-1727,-2222,-2504,3826,317,100692
12:7:11.751,1329,1000.0,171.875,106.4453125,0.03665191429188092,0.014660765716752368,0.020769418098732523,-1728,-2220,-2501,3826,317,100692
12:7:11.772,1330,1007.8125,182.6171875,101.5625,0.03543018381548489,0.0012217304763960308,0.04153883619746505,-1725,-2219,-2515,3826,317,100692
12:7:11.792,1331,1009.765625,174.8046875,99.609375,0.019547687622336492,0.003665191429188092,0.05009094953223726,-1731,-2220,-2506,3826,317,100692
12:7:11.813,1332,1022.4609375,161.1328125,88.8671875,0.029321531433504737,0.003665191429188092,0.07086036763096978,-1729,-2220,-2501,3826,317,100692
12:7:11.823,1333,1013.671875,157.2265625,88.8671875,-0.01710422666954443,0.0,0.08918632477691024,-1722,-2224,-2508,3826,317,100692
12:7:11.843,1334,1003.90625,165.0390625,104.4921875,-0.0671951762017817,0.0158824961931484,0.07208209810736582,-1730,-2226,-2507,3826,317,100692
12:7:11.865,1335,991.2109375,155.2734375,103.515625,-0.10018189906447451,0.003665191429188092,0.04642575810304917,-1723,-2227,-2505,3826,317,100692
12:7:11.884,1336,983.3984375,143.5546875,110.3515625,-0.1343903524035634,-0.013439035240356337,0.020769418098732523,-1730,-2229,-2495,3826,317,100692
12:7:11.904,1337,966.796875,123.046875,96.6796875,-0.18570303241219668,-0.019547687622336492,-0.023212879051524585,-1724,-2228,-2504,3826,317,100692
12:7:11.914,1338,965.8203125,114.2578125,102.5390625,-0.3066543495754037,-0.025656340004316647,-0.10262536001726659,-1724,-2225,-2510,3826,317,100692
12:7:11.935,1339,976.5625,119.140625,116.2109375,-0.40927970959267035,-0.0635299847725936,-0.13683381335635544,-1726,-2224,-2507,3826,317,100692
12:7:11.956,1340,989.2578125,147.4609375,107.421875,-0.4459316238845512,-0.0867428638241182,-0.12461650859239513,-1719,-2228,-2502,3826,317,100692
12:7:11.977,1341,1003.90625,171.875,115.234375,-0.4850269991292242,-0.09773843811168245,-0.14172073526193957,-1728,-2221,-2504,3826,317,100692
12:7:11.987,1342,1025.390625,216.796875,102.5390625,-0.5070181477043528,-0.08063421144213802,-0.11850785621041499,-1726,-2222,-2496,3826,317,100692
12:7:12.7,1343,1036.1328125,241.2109375,96.6796875,-0.4557054676957195,-0.0830776723949301,-0.07574728953655392,-1727,-2224,-2489,3826,317,100692
12:7:12.28,1344,1035.15625,250.0,106.4453125,-0.3628539514896212,-0.08429940287132612,-0.021991148575128554,-1725,-2221,-2497,3826,317,100692
12:7:12.48,1345,1025.390625,244.140625,93.75,-0.27977627909469105,-0.0671951762017817,0.03665191429188092,-1724,-2224,-2492,3826,317,100692
12:7:12.58,1346,1007.8125,252.9296875,104.4921875,-0.26022859147235455,-0.03054326190990077,0.07819075048934597,-1729,-2225,-2496,3826,317,100692
12:7:12.79,1347,994.140625,230.46875,95.703125,-0.19914206765255302,-0.025656340004316647,0.1075122819228507,-1713,-2216,-2497,3826,317,100692
12:7:12.100,1348,980.46875,221.6796875,95.703125,-0.1478293876439197,-0.024434609527920613,0.1270599695451872,-1729,-2225,-2491,3826,317,100692
12:7:12.121,1349,975.5859375,205.078125,108.3984375,-0.1111774733520388,-0.026878070480712675,0.1111774733520388,-1730,-2221,-2498,3826,317,100692
12:7:12.131,1350,982.421875,212.890625,104.4921875,-0.1307251609743753,-0.013439035240356337,0.08918632477691024,-1726,-2228,-2498,3826,317,100692
12:7:12.151,1351,988.28125,192.3828125,109.375,-0.15149457907310784,-0.04031710572106901,0.05986479334340551,-1712,-2223,-2495,3826,317,100692
12:7:12.172,1352,993.1640625,195.3125,93.75,-0.16249015336067207,-0.04642575810304917,0.03543018381548489,-1718,-2233,-2499,3820,317,100686
12:7:12.193,1353,1000.9765625,209.9609375,86.9140625,-0.15393804002589986,-0.04520402762665313,0.0024434609527920616,-1724,-2229,-2495,3820,317,100686
12:7:12.223,1354,1000.0,208.0078125,96.6796875,-0.14416419621473164,-0.02809980095710871,-0.0012217304763960308,-1722,-2228,-2499,3820,317,100686
12:7:12.244,1355,1004.8828125,195.3125,93.75,-0.12217304763960309,-0.01710422666954443,-0.01832595714594046,-1726,-2227,-2504,3820,317,100686
12:7:12.264,1356,1002.9296875,206.0546875,86.9140625,-0.09285151620609834,-0.03054326190990077,-0.023212879051524585,-1727,-2228,-2493,3820,317,100686
12:7:12.357,1357,1001.953125,223.6328125,87.890625,-0.0830776723949301,-0.039095375244672985,-0.03054326190990077,-1720,-2227,-2498,3820,317,100686
12:7:12.428,1358,1002.9296875,245.1171875,98.6328125,-0.08552113334772216,0.0,-0.052534410485029326,-1713,-2228,-2502,3820,317,100686
12:7:12.448,1359,1009.765625,227.5390625,93.75,-0.03298672286269283,0.008552113334772215,-0.04276056667386108,-1727,-2232,-2486,3820,317,100686
12:7:12.469,1360,999.0234375,217.7734375,108.3984375,0.0012217304763960308,0.007330382858376184,-0.07574728953655392,-1720,-2229,-2494,3820,317,100686
12:7:12.499,1361,983.3984375,192.3828125,110.3515625,0.021991148575128554,0.004886921905584123,-0.052534410485029326,-1719,-2222,-2501,3820,317,100686
12:7:12.519,1362,1000.9765625,167.96875,112.3046875,-0.019547687622336492,0.0024434609527920616,-0.09773843811168245,-1725,-2224,-2482,3820,317,100686
12:7:12.539,1363,1002.9296875,162.109375,95.703125,-0.08552113334772216,0.003665191429188092,-0.11850785621041499,-1725,-2226,-2495,3820,317,100686
12:7:12.560,1364,1000.0,171.875,86.9140625,-0.13805554383275148,-0.024434609527920613,-0.1343903524035634,-1729,-2224,-2500,3820,317,100686
12:7:12.570,1365,1004.8828125,182.6171875,90.8203125,-0.1820378409830086,-0.04520402762665313,-0.14049900478554353,-1729,-2226,-2497,3820,317,100686
12:7:12.590,1366,1002.9296875,201.171875,85.9375,-0.17470745812463243,-0.0317649923862968,-0.1038470904936626,-1728,-2222,-2492,3820,317,100686
12:7:12.610,1367,1004.8828125,224.609375,83.984375,-0.16493361431346415,-0.008552113334772215,-0.07208209810736582,-1724,-2218,-2490,3820,317,100686
12:7:12.630,1368,987.3046875,235.3515625,92.7734375,-0.11606439525762292,-0.01710422666954443,-0.03787364476827696,-1726,-2222,-2486,3820,317,100686
12:7:12.774,1369,978.515625,247.0703125,82.03125,-0.07086036763096978,0.008552113334772215,0.0,-1729,-2219,-2496,3820,317,100686
12:7:12.989,1370,961.9140625,247.0703125,83.984375,-0.048869219055841226,0.02809980095710871,0.03054326190990077,-1723,-2224,-2500,3820,317,100686
12:7:13.10,1371,970.703125,228.515625,91.796875,-0.014660765716752368,0.02809980095710871,0.0635299847725936,-1729,-2223,-2490,3820,317,100686
12:7:13.133,1375,1003.90625,249.0234375,103.515625,0.09162978572970232,0.0317649923862968,0.1392772743091475,-1709,-2222,-2496,3820,317,100686
12:7:13.154,1376,1008.7890625,244.140625,108.3984375,0.1429424657383356,0.039095375244672985,0.15271630954950383,-1721,-2224,-2496,3820,317,100686
12:7:13.175,1377,1008.7890625,223.6328125,94.7265625,0.1734857276482364,0.006108652381980153,0.15271630954950383,-1722,-2227,-2510,3820,317,100686
12:7:13.339,1378,1008.7890625,229.4921875,96.6796875,0.17715091907742447,0.006108652381980153,0.1429424657383356,-1725,-2225,-2505,3820,317,100686
12:7:13.411,1379,999.0234375,241.2109375,99.609375,0.1429424657383356,0.0,0.1429424657383356,-1701,-2218,-2498,3820,317,100686
12:7:13.432,1380,1004.8828125,229.4921875,100.5859375,0.16859880574265224,0.004886921905584123,0.11728612573401895,-1728,-2229,-2495,3820,317,100686
12:7:13.452,1381,1000.9765625,208.0078125,97.65625,0.1954768762233649,-0.012217304763960306,0.07941248096574201,-1729,-2231,-2503,3820,317,100686
12:7:13.463,1382,993.1640625,191.40625,86.9140625,0.22602013813326569,-0.0012217304763960308,0.04520402762665313,-1723,-2231,-2502,3820,317,100686
12:7:13.484,1383,986.328125,196.2890625,111.328125,0.2296853295624538,-0.009773843811168246,-0.0012217304763960308,-1726,-2236,-2493,3820,317,100686
12:7:13.504,1384,1003.90625,166.9921875,105.46875,0.18081611050661253,-0.003665191429188092,-0.0476474885794452,-1730,-2233,-2504,3820,317,100686
12:7:13.526,1385,1006.8359375,173.828125,94.7265625,0.15393804002589986,-0.04520402762665313,-0.10018189906447451,-1728,-2230,-2494,3820,317,100686
12:7:13.546,1386,992.1875,209.9609375,93.75,0.1233947781159991,-0.029321531433504737,-0.11728612573401895,-1735,-2234,-2497,3820,317,100686
12:7:13.618,1397,1000.9765625,169.921875,90.8203125,0.06475171524898964,-0.05009094953223726,-0.1478293876439197,-1729,-2219,-2494,3820,317,100686
12:7:13.628,1403,986.328125,169.921875,94.7265625,-0.04276056667386108,0.006108652381980153,0.013439035240356337,-1725,-2225,-2498,3820,317,100686
12:7:13.649,1404,998.046875,162.109375,100.5859375,-0.09773843811168245,0.003665191429188092,0.025656340004316647,-1726,-2216,-2509,3820,317,100686
12:7:13.669,1410,1003.90625,210.9375,93.75,-0.21746802479849348,-0.021991148575128554,0.08185594191853407,-1723,-2218,-2509,3820,317,100686
12:7:13.690,1411,998.046875,223.6328125,87.890625,-0.20036379812894903,-0.0317649923862968,0.11606439525762292,-1725,-2220,-2501,3820,317,100686
12:7:13.710,1415,999.0234375,208.0078125,88.8671875,-0.15149457907310784,-0.0158824961931484,0.10629055144645469,-1724,-2221,-2497,3820,317,100686
12:7:13.720,1424,999.0234375,205.078125,87.890625,-0.11972958668681102,0.0024434609527920616,-0.051312680008633295,-1697,-2213,-2488,3820,317,100686
12:7:13.741,1425,994.140625,186.5234375,89.84375,-0.1343903524035634,0.01832595714594046,-0.0635299847725936,-1721,-2221,-2491,3820,317,100686
12:7:13.835,1426,991.2109375,192.3828125,94.7265625,-0.11972958668681102,-0.004886921905584123,-0.0867428638241182,-1721,-2221,-2489,3820,317,100686
12:7:13.855,1427,994.140625,191.40625,105.46875,-0.1307251609743753,-0.013439035240356337,-0.08185594191853407,-1727,-2216,-2487,3820,317,100686
12:7:13.865,1428,998.046875,200.1953125,103.515625,-0.1343903524035634,-0.007330382858376184,-0.1111774733520388,-1713,-2215,-2483,3820,317,100686
12:7:13.886,1429,1003.90625,196.2890625,104.4921875,-0.17592918860102844,-0.004886921905584123,-0.10873401239924674,-1726,-2221,-2472,3820,317,100686
12:7:13.906,1430,1000.0,199.21875,94.7265625,-0.17959438003021652,0.0,-0.09773843811168245,-1726,-2219,-2492,3820,317,100686
12:7:13.926,1431,1000.0,184.5703125,101.5625,-0.1820378409830086,0.009773843811168246,-0.0989601685880785,-1721,-2223,-2487,3820,317,100686
12:7:13.947,1432,1009.765625,196.2890625,95.703125,-0.17592918860102844,0.021991148575128554,-0.08429940287132612,-1722,-2227,-2491,3820,317,100686
12:7:13.957,1435,1014.6484375,201.171875,104.4921875,-0.20036379812894903,0.004886921905584123,-0.05619960191421742,-1701,-2213,-2489,3820,317,100686
12:7:13.978,1436,1000.9765625,206.0546875,105.46875,-0.21258110289290938,0.0012217304763960308,-0.021991148575128554,-1719,-2221,-2484,3820,317,100686
12:7:13.998,1437,1001.953125,213.8671875,94.7265625,-0.2162462943220974,0.004886921905584123,0.0012217304763960308,-1718,-2222,-2506,3820,317,100686
12:7:14.19,1438,1001.953125,226.5625,109.375,-0.18448130193580062,-0.01832595714594046,0.019547687622336492,-1708,-2213,-2485,3820,317,100686
12:7:14.29,1439,1006.8359375,226.5625,109.375,-0.1478293876439197,-0.03665191429188092,0.05619960191421742,-1722,-2216,-2490,3820,317,100686
12:7:14.50,1440,999.0234375,220.703125,97.65625,-0.11362093430483088,-0.04398229715025711,0.08429940287132612,-1717,-2215,-2492,3820,317,100686
12:7:14.70,1441,992.1875,220.703125,99.609375,-0.1038470904936626,-0.04642575810304917,0.08796459430051422,-1717,-2218,-2489,3820,317,100686
12:7:14.91,1442,984.375,204.1015625,94.7265625,-0.10262536001726659,-0.05009094953223726,0.10018189906447451,-1723,-2216,-2490,3820,317,100686
12:7:14.112,1445,994.140625,177.734375,100.5859375,-0.12095131716320705,-0.03054326190990077,0.04031710572106901,-1714,-2211,-2482,3820,317,100686
12:7:14.122,1446,1000.0,183.59375,81.0546875,-0.16249015336067207,-0.026878070480712675,0.0012217304763960308,-1727,-2219,-2485,3820,317,100686
12:7:14.142,1447,997.0703125,195.3125,83.0078125,-0.1954768762233649,-0.02809980095710871,0.0024434609527920616,-1721,-2215,-2483,3820,317,100686
12:7:14.163,1448,992.1875,202.1484375,71.2890625,-0.17470745812463243,-0.04153883619746505,-0.01832595714594046,-1721,-2222,-2491,3820,317,100686
12:7:14.184,1449,978.515625,217.7734375,89.84375,-0.16982053621904827,0.0012217304763960308,-0.006108652381980153,-1725,-2217,-2496,3820,317,100686
12:7:14.195,1450,980.46875,229.4921875,88.8671875,-0.11728612573401895,0.0,0.020769418098732523,-1722,-2215,-2488,3820,317,100686
12:7:14.215,1451,993.1640625,252.9296875,92.7734375,-0.06108652381980154,0.003665191429188092,0.026878070480712675,-1723,-2213,-2493,3820,317,100686
12:7:14.236,1452,1000.9765625,278.3203125,103.515625,-0.01710422666954443,-0.0024434609527920616,0.05375614096142535,-1694,-2210,-2491,3814,317,100690
12:7:14.257,1453,1005.859375,289.0625,106.4453125,0.0024434609527920616,0.01832595714594046,0.08063421144213802,-1725,-2219,-2493,3814,317,100690
12:7:14.267,1454,993.1640625,277.34375,108.3984375,0.06108652381980154,0.014660765716752368,0.11362093430483088,-1731,-2219,-2488,3814,317,100690
12:7:14.288,1455,981.4453125,232.421875,95.703125,0.15638150097869194,0.009773843811168246,0.10995574287564278,-1728,-2222,-2483,3814,317,100690
12:7:14.308,1456,978.515625,192.3828125,87.890625,0.17837264955382048,0.004886921905584123,0.0989601685880785,-1709,-2218,-2483,3814,317,100690
12:7:14.328,1457,977.5390625,205.078125,85.9375,0.18814649336498873,0.010995574287564277,0.08796459430051422,-1713,-2223,-2492,3814,317,100690
12:7:14.339,1458,969.7265625,207.03125,95.703125,0.1356120828799594,0.009773843811168246,0.0830776723949301,-1727,-2224,-2481,3814,317,100690
12:7:14.359,1459,973.6328125,209.9609375,103.515625,0.08796459430051422,0.0158824961931484,0.029321531433504737,-1725,-2231,-2486,3814,317,100690
12:7:14.380,1460,991.2109375,208.0078125,102.5390625,0.09285151620609834,0.013439035240356337,-0.009773843811168246,-1726,-2228,-2494,3814,317,100690
12:7:14.400,1461,999.0234375,208.984375,103.515625,0.08552113334772216,0.021991148575128554,-0.021991148575128554,-1726,-2230,-2486,3814,317,100690
12:7:14.421,1462,999.0234375,215.8203125,109.375,0.10018189906447451,0.03420845333908886,-0.03543018381548489,-1728,-2223,-2490,3814,317,100690
12:7:14.431,1463,994.140625,208.0078125,119.140625,0.1356120828799594,0.03298672286269283,-0.05986479334340551,-1712,-2219,-2491,3814,317,100690
12:7:14.451,1464,1000.0,212.890625,124.0234375,0.12217304763960309,0.01710422666954443,-0.06230825429619757,-1727,-2230,-2495,3814,317,100690
12:7:14.472,1465,1018.5546875,237.3046875,129.8828125,0.17470745812463243,0.003665191429188092,-0.06963863715457375,-1726,-2230,-2500,3814,317,100690
12:7:14.493,1466,1041.015625,240.234375,132.8125,0.2138028333693054,0.008552113334772215,-0.039095375244672985,-1718,-2220,-2486,3814,317,100690
12:7:14.503,1467,1050.78125,259.765625,119.140625,0.2700024352835228,-0.010995574287564277,-0.0024434609527920616,-1731,-2225,-2504,3814,317,100690
12:7:14.523,1468,1029.296875,243.1640625,118.1640625,0.33475415053251245,0.01832595714594046,-0.0024434609527920616,-1729,-2224,-2497,3814,317,100690
12:7:14.544,1469,1001.953125,201.171875,101.5625,0.39217548292312593,0.039095375244672985,0.0012217304763960308,-1724,-2226,-2492,3814,317,100690
12:7:14.564,1470,982.421875,179.6875,88.8671875,0.39339721339952194,0.03543018381548489,0.0,-1726,-2227,-2497,3814,317,100690
12:7:14.585,1471,975.5859375,167.96875,95.703125,0.34086280291449256,0.023212879051524585,-0.019547687622336492,-1728,-2225,-2493,3814,317,100690
12:7:14.820,1472,983.3984375,163.0859375,98.6328125,0.3066543495754037,0.014660765716752368,-0.04520402762665313,-1725,-2223,-2496,3814,317,100690
12:7:14.840,1473,999.0234375,171.875,95.703125,0.3103195410045918,0.0158824961931484,-0.08063421144213802,-1715,-2224,-2497,3814,317,100690
12:7:14.871,1474,1005.859375,183.59375,104.4921875,0.27611108766550296,0.024434609527920613,-0.07819075048934597,-1722,-2220,-2494,3814,317,100690
12:7:14.891,1475,1007.8125,190.4296875,103.515625,0.27611108766550296,0.0158824961931484,-0.06963863715457375,-1722,-2219,-2480,3814,317,100690
12:7:14.912,1476,1008.7890625,188.4765625,108.3984375,0.2858849314766712,0.021991148575128554,-0.05619960191421742,-1724,-2223,-2500,3814,317,100690
12:7:14.922,1477,1000.0,184.5703125,104.4921875,0.2956587752878394,0.019547687622336492,-0.05742133239061345,-1724,-2219,-2499,3814,317,100690
12:7:14.942,1478,1000.0,180.6640625,96.6796875,0.28099800957108706,0.013439035240356337,-0.05742133239061345,-1718,-2221,-2496,3814,317,100690
12:7:14.962,1479,992.1875,178.7109375,111.328125,0.2211332162276816,0.01832595714594046,-0.05742133239061345,-1721,-2222,-2508,3814,317,100690
12:7:14.983,1480,993.1640625,168.9453125,105.46875,0.2235766771804736,0.0024434609527920616,-0.051312680008633295,-1721,-2216,-2489,3814,317,100690
12:7:15.4,1481,990.234375,171.875,98.6328125,0.1893682238413848,-0.012217304763960306,-0.048869219055841226,-1723,-2217,-2505,3814,317,100690
12:7:15.95,1482,993.1640625,177.734375,95.703125,0.13683381335635544,-0.003665191429188092,-0.058643062867009474,-1723,-2222,-2498,3814,317,100690
12:7:15.105,1483,998.046875,180.6640625,94.7265625,0.1148426647812269,0.004886921905584123,-0.04276056667386108,-1719,-2219,-2499,3814,317,100690
12:7:15.126,1484,996.09375,195.3125,97.65625,0.10262536001726659,0.007330382858376184,-0.03543018381548489,-1726,-2218,-2501,3814,317,100690
12:7:15.146,1485,998.046875,189.453125,102.5390625,0.06108652381980154,-0.0024434609527920616,-0.019547687622336492,-1726,-2218,-2495,3814,317,100690
12:7:15.167,1486,1002.9296875,206.0546875,94.7265625,0.04398229715025711,0.0158824961931484,-0.019547687622336492,-1726,-2214,-2499,3814,317,100690
12:7:15.178,1494,998.046875,202.1484375,85.9375,0.021991148575128554,-0.0024434609527920616,0.07819075048934597,-1716,-2222,-2505,3814,317,100690
12:7:15.198,1495,995.1171875,204.1015625,90.8203125,-0.014660765716752368,-0.008552113334772215,0.05742133239061345,-1724,-2222,-2504,3814,317,100690
12:7:15.219,1498,987.3046875,215.8203125,91.796875,-0.07086036763096978,-0.024434609527920613,0.04153883619746505,-1723,-2222,-2504,3814,317,100690
12:7:15.239,1499,980.46875,206.0546875,89.84375,-0.07574728953655392,-0.02809980095710871,0.048869219055841226,-1723,-2220,-2502,3814,317,100690
12:7:15.250,1500,989.2578125,211.9140625,87.890625,-0.051312680008633295,-0.04398229715025711,0.05375614096142535,-1724,-2225,-2503,3814,317,100690
12:7:15.270,1501,996.09375,219.7265625,102.5390625,-0.10140362954087055,-0.023212879051524585,0.024434609527920613,-1725,-2223,-2493,3814,317,100690
12:7:15.290,1502,1003.90625,228.515625,102.5390625,-0.10018189906447451,-0.03420845333908886,0.03787364476827696,-1720,-2223,-2494,3826,317,100690
12:7:15.362,1503,1007.8125,213.8671875,95.703125,-0.08063421144213802,-0.024434609527920613,0.05497787143782139,-1721,-2221,-2495,3826,317,100690
12:7:15.383,1504,1000.9765625,205.078125,85.9375,-0.06475171524898964,-0.024434609527920613,0.05619960191421742,-1730,-2227,-2507,3826,317,100690
12:7:15.404,1508,1000.0,174.8046875,101.5625,-0.05986479334340551,-0.04031710572106901,0.03054326190990077,-1705,-2218,-2503,3826,317,100690
12:7:15.425,1509,999.0234375,177.734375,94.7265625,-0.07819075048934597,-0.06475171524898964,0.013439035240356337,-1726,-2221,-2496,3826,317,100690
12:7:15.435,1510,985.3515625,187.5,85.9375,-0.09651670763528641,-0.04153883619746505,-0.0012217304763960308,-1728,-2228,-2493,3826,317,100690
12:7:15.455,1511,987.3046875,171.875,94.7265625,-0.11239920382843484,-0.03054326190990077,-0.007330382858376184,-1725,-2223,-2492,3826,317,100690
12:7:15.476,1512,985.3515625,182.6171875,82.03125,-0.0952949771588904,-0.03054326190990077,-0.023212879051524585,-1718,-2222,-2505,3826,317,100690
12:7:15.506,1513,993.1640625,190.4296875,101.5625,-0.10262536001726659,-0.03543018381548489,-0.024434609527920613,-1728,-2221,-2502,3826,317,100690
12:7:15.527,1514,994.140625,197.265625,96.6796875,-0.0635299847725936,-0.0635299847725936,-0.010995574287564277,-1729,-2223,-2490,3826,317,100690
12:7:15.548,1515,993.1640625,206.0546875,92.7734375,-0.04398229715025711,-0.03787364476827696,-0.0012217304763960308,-1724,-2219,-2490,3826,317,100690
12:7:15.569,1516,994.140625,197.265625,93.75,-0.03420845333908886,-0.039095375244672985,0.0,-1727,-2222,-2491,3826,317,100690
12:7:15.579,1517,1000.0,192.3828125,92.7734375,-0.006108652381980153,-0.0317649923862968,0.003665191429188092,-1725,-2226,-2503,3826,317,100690
12:7:15.599,1518,1000.0,184.5703125,94.7265625,-0.010995574287564277,-0.003665191429188092,-0.0012217304763960308,-1728,-2225,-2502,3826,317,100690
12:7:15.620,1519,1000.0,168.9453125,92.7734375,-0.023212879051524585,-0.0024434609527920616,-0.029321531433504737,-1720,-2229,-2488,3826,317,100690
12:7:15.640,1522,989.2578125,205.078125,85.9375,-0.04276056667386108,0.010995574287564277,-0.023212879051524585,-1714,-2218,-2494,3826,317,100690
12:7:15.661,1523,997.0703125,204.1015625,98.6328125,-0.006108652381980153,0.026878070480712675,-0.012217304763960306,-1725,-2230,-2495,3826,317,100690
12:7:15.671,1524,1011.71875,184.5703125,102.5390625,-0.012217304763960306,0.04031710572106901,0.0,-1720,-2225,-2487,3826,317,100690
12:7:15.692,1525,1021.484375,188.4765625,97.65625,-0.04642575810304917,0.020769418098732523,-0.003665191429188092,-1724,-2222,-2496,3826,317,100690
12:7:15.712,1526,1011.71875,210.9375,85.9375,-0.06108652381980154,0.019547687622336492,0.009773843811168246,-1726,-2224,-2502,3826,317,100690
12:7:15.733,1527,1011.71875,262.6953125,73.2421875,0.0158824961931484,0.014660765716752368,0.09040805525330627,-1724,-2223,-2495,3826,317,100690
12:7:15.744,1528,1005.859375,306.640625,84.9609375,0.0989601685880785,0.05986479334340551,0.15638150097869194,-1720,-2227,-2493,3826,317,100690
12:7:15.764,1529,996.09375,265.625,101.5625,0.17470745812463243,0.06841690667817772,0.18448130193580062,-1697,-2214,-2502,3826,317,100690
12:7:15.785,1530,993.1640625,214.84375,92.7734375,0.23701571242082997,0.08552113334772216,0.17837264955382048,-1727,-2227,-2501,3826,317,100690
12:7:15.805,1531,990.234375,156.25,100.5859375,0.18081611050661253,0.09285151620609834,0.12583823906879116,-1728,-2227,-2499,3826,317,100690
12:7:15.826,1532,998.046875,107.421875,104.4921875,0.09773843811168245,0.07452555906015788,0.05742133239061345,-1729,-2230,-2504,3826,317,100690
12:7:15.836,1533,993.1640625,83.0078125,94.7265625,-0.0317649923862968,0.05742133239061345,-0.006108652381980153,-1698,-2219,-2491,3826,317,100690
12:7:15.856,1534,998.046875,97.65625,83.0078125,-0.13316862192716736,0.012217304763960306,-0.07819075048934597,-1723,-2230,-2501,3826,317,100690
12:7:15.876,1535,999.0234375,148.4375,80.078125,-0.2467895562319982,-0.003665191429188092,-0.10873401239924674,-1728,-2233,-2498,3826,317,100690
12:7:15.897,1536,990.234375,188.4765625,65.4296875,-0.2614503219487506,-0.0024434609527920616,-0.1038470904936626,-1721,-2227,-2504,3826,317,100690
12:7:15.907,1537,985.3515625,237.3046875,81.0546875,-0.1954768762233649,-0.0158824961931484,-0.07696902001294993,-1728,-2228,-2503,3826,317,100690
12:7:15.927,1538,986.328125,268.5546875,94.7265625,-0.11239920382843484,-0.014660765716752368,-0.03298672286269283,-1733,-2226,-2513,3826,317,100690
12:7:15.947,1539,989.2578125,292.96875,117.1875,-0.07208209810736582,0.01710422666954443,0.0024434609527920616,-1732,-2224,-2509,3826,317,100690
12:7:15.968,1540,990.234375,265.625,114.2578125,0.01832595714594046,0.0317649923862968,0.04398229715025711,-1720,-2219,-2508,3826,317,100690
12:7:15.988,1541,997.0703125,227.5390625,101.5625,0.07330382858376185,0.03054326190990077,0.06108652381980154,-1731,-2224,-2508,3826,317,100690
12:7:15.998,1542,1009.765625,180.6640625,92.7734375,0.0952949771588904,0.025656340004316647,0.0830776723949301,-1730,-2229,-2509,3826,317,100690
12:7:16.19,1543,1017.578125,157.2265625,86.9140625,0.0989601685880785,0.007330382858376184,0.07086036763096978,-1726,-2224,-2504,3826,317,100690
12:7:16.39,1544,1013.671875,170.8984375,83.984375,0.06108652381980154,0.0012217304763960308,0.05742133239061345,-1726,-2231,-2507,3826,317,100690
12:7:16.59,1545,1008.7890625,185.546875,104.4921875,0.014660765716752368,0.009773843811168246,0.0,-1727,-2234,-2504,3826,317,100690
12:7:16.80,1546,1009.765625,190.4296875,108.3984375,-0.009773843811168246,-0.023212879051524585,-0.014660765716752368,-1727,-2233,-2507,3826,317,100690
12:7:16.90,1547,998.046875,195.3125,96.6796875,-0.003665191429188092,-0.009773843811168246,-0.003665191429188092,-1714,-2226,-2515,3826,317,100690
12:7:16.110,1548,999.0234375,212.890625,90.8203125,0.003665191429188092,-0.01832595714594046,0.0,-1725,-2227,-2503,3826,317,100690
12:7:16.131,1549,996.09375,237.3046875,93.75,0.009773843811168246,-0.01710422666954443,0.007330382858376184,-1724,-2232,-2501,3826,317,100690
12:7:16.151,1550,990.234375,247.0703125,93.75,0.08796459430051422,-0.014660765716752368,0.04520402762665313,-1711,-2225,-2504,3826,317,100690
12:7:16.162,1551,996.09375,240.234375,110.3515625,0.16737707526625623,-0.014660765716752368,0.05375614096142535,-1727,-2229,-2492,3826,317,100690
12:7:16.182,1552,999.0234375,222.65625,95.703125,0.2419026343264141,0.0,0.07208209810736582,-1729,-2232,-2496,3808,317,100688
12:7:16.202,1553,999.0234375,208.0078125,96.6796875,0.2553416695667704,0.007330382858376184,0.05619960191421742,-1727,-2233,-2515,3808,317,100688
12:7:16.223,1554,1005.859375,187.5,103.515625,0.2895501229058593,0.020769418098732523,0.05742133239061345,-1728,-2234,-2511,3808,317,100688
12:7:16.243,1555,1010.7421875,177.734375,94.7265625,0.2871066619530672,0.019547687622336492,0.04520402762665313,-1726,-2234,-2503,3808,317,100688
12:7:16.254,1556,1006.8359375,157.2265625,97.65625,0.2700024352835228,0.01710422666954443,0.007330382858376184,-1727,-2232,-2509,3808,317,100688
12:7:16.274,1557,1016.6015625,147.4609375,102.5390625,0.26022859147235455,0.01832595714594046,0.0,-1724,-2234,-2508,3808,317,100688
12:7:16.295,1558,1020.5078125,143.5546875,94.7265625,0.2675589743307307,0.024434609527920613,-0.01710422666954443,-1729,-2232,-2513,3808,317,100688
12:7:16.315,1559,1002.9296875,148.4375,96.6796875,0.22846359908605776,0.007330382858376184,-0.04031710572106901,-1716,-2233,-2509,3808,317,100688
12:7:16.335,1560,995.1171875,153.3203125,111.328125,0.1734857276482364,0.0024434609527920616,-0.07452555906015788,-1718,-2233,-2513,3808,317,100688
12:7:16.345,1561,995.1171875,161.1328125,113.28125,0.14049900478554353,0.008552113334772215,-0.08063421144213802,-1722,-2225,-2499,3808,317,100688
12:7:16.366,1562,997.0703125,161.1328125,111.328125,0.1392772743091475,-0.013439035240356337,-0.10262536001726659,-1722,-2230,-2508,3808,317,100688
12:7:16.386,1563,999.0234375,170.8984375,97.65625,0.13316862192716736,-0.006108652381980153,-0.10018189906447451,-1725,-2230,-2513,3808,317,100688
12:7:16.407,1564,1003.90625,178.7109375,100.5859375,0.09773843811168245,0.009773843811168246,-0.10140362954087055,-1723,-2231,-2516,3808,317,100688
12:7:16.417,1565,1004.8828125,171.875,90.8203125,0.12950343049797927,0.008552113334772215,-0.07330382858376185,-1722,-2231,-2509,3808,317,100688
12:7:16.439,1566,1003.90625,167.96875,99.609375,0.10873401239924674,0.004886921905584123,-0.07696902001294993,-1724,-2229,-2504,3808,317,100688
12:7:16.459,1567,1003.90625,172.8515625,93.75,0.13194689145077132,0.009773843811168246,-0.05619960191421742,-1720,-2231,-2514,3808,317,100688
12:7:16.480,1568,1003.90625,171.875,106.4453125,0.10018189906447451,0.012217304763960306,-0.0476474885794452,-1700,-2221,-2521,3808,317,100688
12:7:16.490,1569,1008.7890625,165.0390625,111.328125,0.08185594191853407,0.007330382858376184,-0.039095375244672985,-1724,-2231,-2514,3808,317,100688
12:7:16.510,1570,1014.6484375,183.59375,88.8671875,0.06475171524898964,0.0158824961931484,-0.026878070480712675,-1731,-2229,-2511,3808,317,100688
12:7:16.531,1571,1016.6015625,187.5,99.609375,0.029321531433504737,0.0024434609527920616,-0.021991148575128554,-1726,-2222,-2516,3808,317,100688
12:7:16.572,1572,1018.5546875,201.171875,87.890625,0.039095375244672985,0.0158824961931484,0.0012217304763960308,-1724,-2230,-2514,3808,317,100688
12:7:16.582,1573,1000.0,191.40625,74.21875,0.06108652381980154,0.01710422666954443,0.026878070480712675,-1727,-2229,-2518,3808,317,100688
12:7:16.603,1574,989.2578125,195.3125,81.0546875,0.0635299847725936,0.012217304763960306,0.026878070480712675,-1720,-2225,-2512,3808,317,100688
12:7:16.624,1575,989.2578125,201.171875,93.75,0.07574728953655392,0.007330382858376184,0.048869219055841226,-1722,-2232,-2507,3808,317,100688
12:7:16.645,1576,993.1640625,193.359375,96.6796875,0.09285151620609834,-0.003665191429188092,0.07086036763096978,-1725,-2230,-2519,3808,317,100688
12:7:16.655,1577,1000.0,192.3828125,91.796875,0.07574728953655392,-0.004886921905584123,0.05742133239061345,-1724,-2229,-2514,3808,317,100688
12:7:16.675,1578,1002.9296875,186.5234375,97.65625,0.03787364476827696,-0.007330382858376184,0.05497787143782139,-1715,-2227,-2509,3808,317,100688
12:7:16.696,1579,998.046875,184.5703125,91.796875,0.04153883619746505,-0.014660765716752368,0.03543018381548489,-1723,-2233,-2509,3808,317,100688
12:7:16.717,1580,1002.9296875,171.875,87.890625,0.048869219055841226,-0.03543018381548489,0.03543018381548489,-1720,-2232,-2508,3808,317,100688
12:7:16.768,1581,1001.953125,184.5703125,92.7734375,0.019547687622336492,-0.0158824961931484,0.019547687622336492,-1722,-2236,-2511,3808,317,100688
12:7:16.840,1582,1002.9296875,167.96875,97.65625,0.0012217304763960308,-0.03054326190990077,-0.010995574287564277,-1723,-2230,-2515,3808,317,100688
12:7:16.861,1583,1001.953125,174.8046875,90.8203125,0.0,-0.039095375244672985,-0.014660765716752368,-1725,-2229,-2511,3808,317,100688
12:7:16.882,1584,993.1640625,157.2265625,89.84375,-0.05619960191421742,-0.024434609527920613,-0.0476474885794452,-1727,-2231,-2514,3808,317,100688
12:7:16.892,1585,1000.0,163.0859375,83.0078125,-0.08185594191853407,-0.026878070480712675,-0.07452555906015788,-1714,-2228,-2511,3808,317,100688
12:7:16.913,1586,999.0234375,166.015625,97.65625,-0.12828170002158323,-0.024434609527920613,-0.08552113334772216,-1722,-2228,-2510,3808,317,100688
12:7:16.934,1587,1000.9765625,174.8046875,95.703125,-0.1148426647812269,-0.03420845333908886,-0.11972958668681102,-1728,-2228,-2508,3808,317,100688
12:7:16.954,1588,1002.9296875,168.9453125,100.5859375,-0.1356120828799594,-0.0317649923862968,-0.1233947781159991,-1726,-2232,-2512,3808,317,100688
12:7:16.964,1589,1002.9296875,173.828125,89.84375,-0.1502728485967118,-0.05497787143782139,-0.14172073526193957,-1720,-2227,-2515,3808,317,100688
12:7:16.985,1590,1002.9296875,207.03125,100.5859375,-0.19669860669976097,-0.023212879051524585,-0.12095131716320705,-1725,-2228,-2509,3808,317,100688
12:7:17.5,1591,1004.8828125,209.9609375,91.796875,-0.1734857276482364,-0.052534410485029326,-0.07819075048934597,-1726,-2224,-2504,3808,317,100688
12:7:17.26,1592,997.0703125,229.4921875,92.7734375,-0.13194689145077132,-0.039095375244672985,-0.052534410485029326,-1725,-2227,-2521,3808,317,100688
12:7:17.46,1593,1001.953125,210.9375,100.5859375,-0.11850785621041499,-0.01832595714594046,-0.0317649923862968,-1726,-2225,-2513,3808,317,100688
12:7:17.56,1594,999.0234375,196.2890625,106.4453125,-0.12095131716320705,-0.026878070480712675,-0.009773843811168246,-1723,-2226,-2495,3808,317,100688
12:7:17.117,1595,984.375,207.03125,92.7734375,-0.10873401239924674,-0.04398229715025711,0.0012217304763960308,-1721,-2225,-2521,3808,317,100688
12:7:17.188,1596,979.4921875,209.9609375,90.8203125,-0.12217304763960309,-0.04031710572106901,0.012217304763960306,-1698,-2216,-2509,3808,317,100688
12:7:17.209,1597,988.28125,208.0078125,95.703125,-0.10506882097005865,-0.03543018381548489,0.03054326190990077,-1719,-2222,-2501,3808,317,100688
12:7:17.332,1598,993.1640625,209.9609375,94.7265625,-0.09651670763528641,-0.03420845333908886,0.023212879051524585,-1716,-2222,-2502,3808,317,100688
12:7:17.403,1599,1001.953125,197.265625,102.5390625,-0.10018189906447451,-0.03420845333908886,0.007330382858376184,-1715,-2227,-2506,3808,317,100688
12:7:17.424,1600,1001.953125,200.1953125,95.703125,-0.10018189906447451,-0.04031710572106901,0.03543018381548489,-1721,-2222,-2497,3808,317,100688
12:7:17.444,1601,998.046875,220.703125,96.6796875,-0.12828170002158323,-0.004886921905584123,0.010995574287564277,-1720,-2229,-2500,3808,317,100688
12:7:17.464,1602,998.046875,220.703125,100.5859375,-0.1392772743091475,-0.010995574287564277,0.01832595714594046,-1720,-2227,-2496,3814,317,100689
12:7:17.475,1603,996.09375,222.65625,92.7734375,-0.09773843811168245,-0.012217304763960306,0.023212879051524585,-1719,-2224,-2494,3814,317,100689
12:7:17.495,1604,992.1875,233.3984375,87.890625,-0.09040805525330627,-0.020769418098732523,0.03298672286269283,-1725,-2221,-2503,3814,317,100689
12:7:17.516,1605,1001.953125,233.3984375,100.5859375,-0.07574728953655392,0.01710422666954443,0.03298672286269283,-1723,-2223,-2499,3814,317,100689
12:7:17.536,1606,1000.0,234.375,95.703125,-0.04153883619746505,0.013439035240356337,0.013439035240356337,-1719,-2223,-2506,3814,317,100689
12:7:17.556,1607,1001.953125,219.7265625,90.8203125,-0.03543018381548489,0.019547687622336492,0.021991148575128554,-1727,-2224,-2512,3814,317,100689
12:7:17.607,1608,1003.90625,220.703125,94.7265625,-0.0317649923862968,0.012217304763960306,0.021991148575128554,-1725,-2228,-2502,3814,317,100689
12:7:17.628,1613,997.0703125,207.03125,91.796875,0.026878070480712675,-0.003665191429188092,-0.026878070480712675,-1707,-2224,-2510,3814,317,100689
12:7:17.638,1614,997.0703125,206.0546875,109.375,0.019547687622336492,-0.010995574287564277,-0.04276056667386108,-1720,-2226,-2510,3814,317,100689
12:7:17.659,1618,990.234375,203.125,95.703125,0.02809980095710871,-0.029321531433504737,-0.03543018381548489,-1726,-2230,-2508,3814,317,100689
12:7:17.679,1623,992.1875,207.03125,97.65625,0.06108652381980154,-0.006108652381980153,-0.01832595714594046,-1718,-2228,-2503,3814,317,100689
12:7:17.700,1624,1000.9765625,197.265625,91.796875,0.05375614096142535,-0.0024434609527920616,0.0,-1703,-2214,-2504,3814,317,100689
12:7:17.720,1625,998.046875,217.7734375,93.75,0.07330382858376185,0.020769418098732523,0.0012217304763960308,-1721,-2222,-2502,3814,317,100689
12:7:17.731,1626,996.09375,203.125,101.5625,0.05619960191421742,0.04642575810304917,0.019547687622336492,-1716,-2219,-2502,3814,317,100689
12:7:17.751,1627,991.2109375,208.984375,102.5390625,0.08063421144213802,0.06475171524898964,0.029321531433504737,-1703,-2215,-2501,3814,317,100689
12:7:17.772,1628,993.1640625,192.3828125,95.703125,0.07941248096574201,0.039095375244672985,0.04031710572106901,-1723,-2223,-2506,3814,317,100689
12:7:17.792,1629,994.140625,187.5,90.8203125,0.08429940287132612,0.05986479334340551,0.025656340004316647,-1717,-2225,-2510,3814,317,100689
12:7:17.802,1630,989.2578125,193.359375,94.7265625,0.07574728953655392,0.08796459430051422,0.03665191429188092,-1719,-2227,-2504,3814,317,100689
12:7:17.823,1631,998.046875,207.03125,92.7734375,0.05742133239061345,0.08552113334772216,0.03665191429188092,-1721,-2227,-2508,3814,317,100689
12:7:17.843,1632,1000.0,205.078125,94.7265625,0.06108652381980154,0.08552113334772216,0.04520402762665313,-1723,-2227,-2510,3814,317,100689
12:7:17.864,1634,1000.9765625,210.9375,88.8671875,0.13316862192716736,0.10873401239924674,0.0671951762017817,-1706,-2218,-2511,3814,317,100689
12:7:17.875,1635,1005.859375,206.0546875,109.375,0.12461650859239513,0.1429424657383356,0.05497787143782139,-1720,-2225,-2504,3814,317,100689
12:7:17.895,1636,1005.859375,193.359375,94.7265625,0.12950343049797927,0.12950343049797927,0.07208209810736582,-1721,-2216,-2510,3814,317,100689
12:7:17.915,1637,999.0234375,184.5703125,90.8203125,0.1478293876439197,0.1148426647812269,0.051312680008633295,-1723,-2221,-2511,3814,317,100689
12:7:17.935,1638,994.140625,189.453125,94.7265625,0.1356120828799594,0.11239920382843484,0.0635299847725936,-1723,-2220,-2520,3814,317,100689
12:7:17.956,1639,1000.9765625,189.453125,104.4921875,0.14905111812031577,0.10506882097005865,0.06597344572538566,-1719,-2226,-2508,3814,317,100689
12:7:17.966,1640,1006.8359375,190.4296875,110.3515625,0.1356120828799594,0.08185594191853407,0.0671951762017817,-1718,-2226,-2522,3814,317,100689
12:7:18.29,1641,1021.484375,183.59375,101.5625,0.14416419621473164,0.06230825429619757,0.04642575810304917,-1712,-2225,-2530,3814,317,100689
12:7:18.101,1642,1019.53125,179.6875,98.6328125,0.1233947781159991,0.058643062867009474,0.05497787143782139,-1715,-2229,-2522,3814,317,100689
12:7:18.121,1643,1012.6953125,204.1015625,92.7734375,0.10140362954087055,0.06108652381980154,0.05375614096142535,-1718,-2229,-2518,3814,317,100689
12:7:18.131,1644,1011.71875,206.0546875,115.234375,0.07574728953655392,0.07208209810736582,0.05497787143782139,-1724,-2232,-2515,3814,317,100689
12:7:18.152,1645,1000.0,198.2421875,116.2109375,0.1392772743091475,0.05619960191421742,0.0635299847725936,-1690,-2218,-2517,3814,317,100689
12:7:18.172,1646,986.328125,184.5703125,112.3046875,0.1392772743091475,0.05742133239061345,0.0476474885794452,-1720,-2234,-2513,3814,317,100689
12:7:18.193,1647,985.3515625,168.9453125,110.3515625,0.1111774733520388,0.026878070480712675,0.02809980095710871,-1721,-2236,-2519,3814,317,100689
12:7:18.203,1648,1000.0,159.1796875,113.28125,0.08552113334772216,0.01832595714594046,0.03298672286269283,-1720,-2232,-2507,3814,317,100689
12:7:18.448,1649,997.0703125,164.0625,113.28125,0.07574728953655392,-0.003665191429188092,0.023212879051524585,-1703,-2225,-2523,3814,317,100689
12:7:18.459,1650,1000.0,179.6875,125.9765625,0.026878070480712675,0.008552113334772215,0.029321531433504737,-1722,-2230,-2518,3814,317,100689
12:7:18.479,1651,998.046875,172.8515625,130.859375,0.029321531433504737,0.012217304763960306,0.01710422666954443,-1716,-2232,-2517,3814,317,100689
12:7:18.664,1652,994.140625,170.8984375,132.8125,0.03054326190990077,0.004886921905584123,-0.004886921905584123,-1720,-2231,-2509,3814,317,100692
12:7:18.685,1653,994.140625,162.109375,132.8125,0.013439035240356337,-0.006108652381980153,-0.006108652381980153,-1726,-2238,-2522,3814,317,100692
12:7:18.798,1654,992.1875,163.0859375,124.0234375,-0.029321531433504737,-0.020769418098732523,-0.01710422666954443,-1723,-2232,-2520,3814,317,100692
12:7:18.808,1655,1000.0,171.875,114.2578125,-0.07941248096574201,-0.009773843811168246,-0.006108652381980153,-1720,-2235,-2511,3814,317,100692
12:7:18.828,1656,1000.0,178.7109375,113.28125,-0.0830776723949301,-0.0012217304763960308,-0.004886921905584123,-1728,-2231,-2514,3814,317,100692
12:7:18.869,1659,1001.953125,195.3125,116.2109375,-0.07086036763096978,0.025656340004316647,0.012217304763960306,-1728,-2227,-2512,3814,317,100692
12:7:18.890,1660,1000.9765625,207.03125,129.8828125,-0.07330382858376185,0.023212879051524585,0.03543018381548489,-1719,-2232,-2522,3814,317,100692
12:7:18.940,1661,1000.9765625,197.265625,124.0234375,-0.06475171524898964,0.039095375244672985,0.01710422666954443,-1725,-2233,-2517,3814,317,100692
12:7:18.961,1662,1002.9296875,190.4296875,107.421875,-0.04031710572106901,0.026878070480712675,0.03298672286269283,-1713,-2230,-2523,3814,317,100692
12:7:18.971,1663,1000.0,182.6171875,113.28125,-0.04031710572106901,0.009773843811168246,0.019547687622336492,-1720,-2235,-2520,3814,317,100692
12:7:18.991,1664,1006.8359375,173.828125,116.2109375,-0.058643062867009474,0.03543018381548489,0.025656340004316647,-1721,-2232,-2523,3814,317,100692
12:7:19.12,1676,1001.953125,188.4765625,120.1171875,-0.03543018381548489,-0.029321531433504737,0.014660765716752368,-1722,-2239,-2521,3814,317,100692
12:7:19.33,1677,1001.953125,173.828125,136.71875,-0.052534410485029326,-0.03054326190990077,0.004886921905584123,-1725,-2238,-2518,3814,317,100692
12:7:19.54,1678,1001.953125,171.875,122.0703125,-0.025656340004316647,-0.05619960191421742,0.008552113334772215,-1723,-2239,-2524,3814,317,100692
12:7:19.64,1679,1000.0,167.96875,125.0,-0.05497787143782139,-0.05375614096142535,0.0012217304763960308,-1722,-2237,-2519,3814,317,100692
12:7:19.85,1687,998.046875,184.5703125,125.0,-0.0317649923862968,0.0,0.012217304763960306,-1719,-2237,-2518,3814,317,100692
12:7:19.106,1688,997.0703125,171.875,129.8828125,-0.013439035240356337,0.0024434609527920616,0.008552113334772215,-1721,-2235,-2525,3814,317,100692
12:7:19.127,1694,1002.9296875,170.8984375,114.2578125,-0.006108652381980153,-0.007330382858376184,0.0,-1699,-2235,-2514,3814,317,100692
12:7:19.137,1695,1000.0,171.875,125.9765625,-0.01832595714594046,0.0158824961931484,-0.008552113334772215,-1720,-2241,-2516,3814,317,100692
12:7:19.157,1697,1000.0,181.640625,127.9296875,-0.04276056667386108,0.012217304763960306,-0.023212879051524585,-1724,-2239,-2514,3814,317,100692
12:7:19.208,1698,1001.953125,181.640625,120.1171875,-0.0024434609527920616,-0.006108652381980153,-0.0024434609527920616,-1726,-2244,-2519,3814,317,100692
12:7:19.229,1700,997.0703125,170.8984375,120.1171875,-0.0012217304763960308,-0.009773843811168246,-0.006108652381980153,-1722,-2240,-2522,3814,317,100692
12:7:19.250,1701,1006.8359375,174.8046875,119.140625,-0.003665191429188092,0.009773843811168246,-0.008552113334772215,-1701,-2237,-2505,3814,317,100692
12:7:19.271,1702,1005.859375,175.78125,128.90625,-0.013439035240356337,-0.014660765716752368,-0.014660765716752368,-1727,-2241,-2517,3820,317,100694
12:7:19.281,1703,1011.71875,168.9453125,134.765625,-0.013439035240356337,-0.019547687622336492,-0.025656340004316647,-1727,-2237,-2520,3820,317,100694
12:7:19.302,1704,1008.7890625,164.0625,115.234375,-0.03665191429188092,-0.006108652381980153,-0.025656340004316647,-1721,-2233,-2519,3820,317,100694
12:7:19.363,1705,1004.8828125,168.9453125,105.46875,-0.06230825429619757,-0.019547687622336492,-0.04642575810304917,-1721,-2238,-2515,3820,317,100694
12:7:19.383,1706,1000.0,185.546875,99.609375,-0.05375614096142535,-0.019547687622336492,-0.03787364476827696,-1724,-2240,-2511,3820,317,100694
12:7:19.393,1707,997.0703125,182.6171875,110.3515625,-0.03298672286269283,-0.039095375244672985,-0.026878070480712675,-1725,-2241,-2509,3820,317,100694
12:7:19.414,1708,986.328125,191.40625,125.0,-0.012217304763960306,-0.023212879051524585,-0.0317649923862968,-1725,-2239,-2521,3820,317,100694
12:7:19.434,1709,994.140625,179.6875,128.90625,-0.0024434609527920616,-0.03054326190990077,-0.014660765716752368,-1721,-2236,-2519,3820,317,100694
12:7:19.454,1710,996.09375,167.96875,119.140625,0.010995574287564277,-0.03298672286269283,-0.009773843811168246,-1719,-2240,-2516,3820,317,100694
12:7:19.465,1711,1003.90625,171.875,121.09375,-0.025656340004316647,-0.03665191429188092,0.004886921905584123,-1722,-2235,-2520,3820,317,100694
12:7:19.485,1712,999.0234375,178.7109375,112.3046875,-0.02809980095710871,-0.023212879051524585,-0.0024434609527920616,-1715,-2233,-2517,3820,317,100694
12:7:19.506,1715,999.0234375,163.0859375,155.2734375,-0.07819075048934597,-0.05497787143782139,-0.003665191429188092,-1724,-2235,-2515,3820,317,100694
12:7:19.526,1716,1015.625,96.6796875,186.5234375,-0.37507125625358145,-0.12217304763960309,-0.04031710572106901,-1722,-2232,-2518,3820,317,100694
12:7:19.537,1717,1013.671875,104.4921875,137.6953125,-0.6853907972581733,-0.20647245051092922,-0.11972958668681102,-1720,-2233,-2515,3820,317,100694
12:7:19.557,1718,1032.2265625,179.6875,79.1015625,-0.8649851772883896,-0.2724458962363148,-0.23579398194443396,-1722,-2228,-2504,3820,317,100694
12:7:19.578,1719,1034.1796875,231.4453125,37.109375,-0.7855726963226478,-0.32498030672134415,-0.278554548618295,-1724,-2227,-2510,3820,317,100694
12:7:19.598,1720,1041.015625,265.625,1.953125,-0.5681046715241543,-0.32253684576855207,-0.3005456971934236,-1724,-2230,-2505,3820,317,100694
12:7:19.618,1721,1028.3203125,267.578125,2.9296875,-0.3029891581462157,-0.3274237676741363,-0.2907718533822553,-1723,-2229,-2513,3820,317,100694
12:7:19.629,1722,1037.109375,248.046875,53.7109375,-0.12828170002158323,-0.3481931857728688,-0.28344147052387914,-1693,-2214,-2499,3820,317,100694
12:7:19.649,1723,1041.015625,224.609375,68.359375,-0.04153883619746505,-0.38606683054114566,-0.278554548618295,-1726,-2221,-2492,3820,317,100694
12:7:19.670,1724,1026.3671875,218.75,45.8984375,-0.048869219055841226,-0.4300491276914028,-0.32498030672134415,-1723,-2220,-2498,3820,317,100694
12:7:19.690,1725,1035.15625,208.0078125,16.6015625,-0.10995574287564278,-0.5302310267558774,-0.39461894387591795,-1724,-2218,-2500,3820,317,100694
12:7:19.701,1726,1027.34375,191.40625,19.53125,-0.1478293876439197,-0.5791002458117186,-0.4447098934081552,-1725,-2213,-2486,3820,317,100694
12:7:19.721,1727,1021.484375,220.703125,11.71875,-0.19669860669976097,-0.6279694648675598,-0.4825835381764321,-1723,-2212,-2479,3820,317,100694
12:7:19.742,1728,1011.71875,217.7734375,23.4375,-0.2419026343264141,-0.6536258048718764,-0.5216789134211052,-1724,-2204,-2475,3820,317,100694
12:7:19.762,1729,1026.3671875,208.984375,34.1796875,-0.17592918860102844,-0.6878342582109653,-0.5326744877086694,-1718,-2201,-2463,3820,317,100694
12:7:19.783,1730,1026.3671875,212.890625,7.8125,-0.13683381335635544,-0.7342600163140146,-0.4838052686528282,-1723,-2193,-2458,3820,317,100694
12:7:19.793,1731,1036.1328125,207.03125,-9.765625,-0.06963863715457375,-0.7452555906015788,-0.42638393626221477,-1725,-2193,-2459,3820,317,100694
12:7:19.813,1732,1031.25,263.671875,-33.203125,-0.05009094953223726,-0.6951646410693415,-0.44959681531373935,-1714,-2183,-2437,3820,317,100694
12:7:19.834,1733,1010.7421875,329.1015625,-18.5546875,-0.07696902001294993,-0.631634656296748,-0.49113565151120436,-1722,-2183,-2439,3820,317,100694
12:7:19.854,1734,991.2109375,407.2265625,-16.6015625,-0.009773843811168246,-0.5998696639104512,-0.5253441048502933,-1726,-2180,-2435,3820,317,100694
12:7:19.865,1735,964.84375,418.9453125,-27.34375,0.04031710572106901,-0.5277875658030853,-0.5277875658030853,-1724,-2173,-2427,3820,317,100694
12:7:19.885,1736,951.171875,425.78125,-22.4609375,0.05742133239061345,-0.46303585055409563,-0.6084217772452234,-1719,-2171,-2432,3820,317,100694
12:7:19.905,1737,930.6640625,469.7265625,-34.1796875,0.1270599695451872,-0.40194932673429407,-0.6988298324985297,-1726,-2164,-2412,3820,317,100694
12:7:19.925,1738,922.8515625,487.3046875,-85.9375,0.17959438003021652,-0.3652974124424132,-0.7330382858376185,-1725,-2163,-2412,3820,317,100694
12:7:19.946,1739,928.7109375,539.0625,-86.9140625,0.28099800957108706,-0.3885102914939378,-0.8429940287132612,-1708,-2150,-2416,3820,317,100694
12:7:19.956,1740,903.3203125,558.59375,-83.0078125,0.3872885610175418,-0.3445279943436807,-0.9663888068292604,-1729,-2147,-2407,3820,317,100694
12:7:19.976,1741,913.0859375,517.578125,-106.4453125,0.46303585055409563,-0.3139847324337799,-1.0665707058937348,-1726,-2145,-2399,3820,317,100694
12:7:19.996,1742,924.8046875,525.390625,-125.9765625,0.5864306286700948,-0.3420845333908886,-1.1630874135290212,-1735,-2134,-2418,3820,317,100694
12:7:20.17,1743,936.5234375,594.7265625,-112.3046875,0.6939429105929455,-0.32375857624494814,-1.2791518087866443,-1740,-2127,-2407,3820,317,100694
12:7:20.38,1744,923.828125,600.5859375,-140.625,0.8185594191853407,-0.3090978105281958,-1.3573425592759902,-1734,-2123,-2387,3820,317,100694
12:7:20.48,1745,907.2265625,583.984375,-132.8125,0.913854396344231,-0.29810223624063154,-1.4208725440485839,-1743,-2110,-2395,3820,317,100694
12:7:20.68,1746,877.9296875,612.3046875,-137.6953125,0.9615018849236762,-0.2504547476611863,-1.5296065564478305,-1739,-2093,-2398,3820,317,100694
12:7:20.88,1747,879.8828125,587.890625,-156.25,0.9676105373056564,-0.2663372438543347,-1.6505578736110376,-1743,-2092,-2373,3820,317,100694
12:7:20.109,1748,850.5859375,632.8125,-167.96875,1.0177014868378935,-0.3274237676741363,-1.705535745048859,-1747,-2079,-2374,3820,317,100694
12:7:20.119,1749,857.421875,618.1640625,-164.0625,1.0751228192285072,-0.2932153143350474,-1.7837264955382048,-1756,-2074,-2373,3820,317,100694
12:7:20.139,1750,839.84375,618.1640625,-195.3125,1.0616837839881508,-0.2822197400474831,-1.8044959136369376,-1750,-2059,-2369,3820,317,100694
12:7:20.159,1751,824.21875,664.0625,-203.125,1.0812314716104872,-0.33719761148530447,-1.8753562812679074,-1761,-2053,-2365,3820,317,100694
12:7:20.180,1752,798.828125,680.6640625,-188.4765625,1.0323622525546459,-0.3420845333908886,-1.8973474298430355,-1771,-2040,-2362,3814,317,100691
12:7:20.200,1753,776.3671875,684.5703125,-207.03125,1.0079276430267254,-0.3017674276698196,-1.9413297269932928,-1773,-2035,-2357,3814,317,100691
12:7:20.210,1754,736.328125,674.8046875,-224.609375,1.0433578268422103,-0.2700024352835228,-1.865582437456739,-1779,-2022,-2347,3814,317,100691
12:7:20.231,1755,722.65625,707.03125,-254.8828125,1.0787880106576953,-0.20647245051092922,-1.8472564803107985,-1790,-2008,-2358,3814,317,100691
12:7:20.251,1756,691.40625,750.0,-260.7421875,1.150870108765061,-0.2431243648028101,-1.8106045660189176,-1793,-2006,-2336,3814,317,100691
12:7:20.272,1757,659.1796875,741.2109375,-284.1796875,1.1435397259066848,-0.2186897552748895,-1.7654005383922646,-1801,-1995,-2347,3814,317,100691
12:7:20.292,1758,650.390625,734.375,-293.9453125,1.1044443506620119,-0.19303341527057283,-1.7629570774394723,-1808,-1985,-2319,3814,317,100691
12:7:20.303,1759,608.3984375,769.53125,-301.7578125,1.1630874135290212,-0.1869247628885927,-1.7128661279072352,-1813,-1984,-2323,3814,317,100691
12:7:20.323,1760,583.0078125,757.8125,-288.0859375,1.2205087459196347,-0.1233947781159991,-1.6077973069371763,-1821,-1973,-2303,3814,317,100691
12:7:20.344,1761,552.734375,724.609375,-320.3125,1.1728612573401895,-0.1148426647812269,-1.5344934783534145,-1833,-1970,-2299,3814,317,100691
12:7:20.364,1762,519.53125,748.046875,-347.65625,1.1728612573401895,-0.05619960191421742,-1.475850415486405,-1842,-1960,-2283,3814,317,100691
12:7:20.374,1763,503.90625,759.765625,-388.671875,1.2205087459196347,0.007330382858376184,-1.386664090709495,-1846,-1958,-2287,3814,317,100691
12:7:20.395,1764,481.4453125,736.328125,-384.765625,1.2180652849668427,0.0671951762017817,-1.3304644887952775,-1846,-1952,-2281,3814,317,100691
12:7:20.415,1765,445.3125,720.703125,-388.671875,1.2107349021084666,0.12461650859239513,-1.2962560354561887,-1860,-1958,-2274,3814,317,100691
12:7:20.436,1766,420.8984375,757.8125,-391.6015625,1.1814133706749619,0.20525072003453318,-1.2754866173574562,-1862,-1953,-2281,3814,317,100691
12:7:20.447,1767,382.8125,781.25,-433.59375,1.1863002925805461,0.2309070600388498,-1.1997393278209023,-1868,-1951,-2267,3814,317,100691
12:7:20.467,1768,366.2109375,774.4140625,-484.375,1.1691960659110014,0.2467895562319982,-1.147204917335873,-1877,-1950,-2254,3814,317,100691
12:7:20.487,1769,348.6328125,789.0625,-454.1015625,1.1985175973445061,0.31154127148098787,-1.1533135697178531,-1880,-1954,-2262,3814,317,100691
12:7:20.508,1770,353.515625,809.5703125,-489.2578125,1.147204917335873,0.3481931857728688,-1.1447614563830808,-1882,-1954,-2259,3814,317,100691
12:7:20.529,1771,332.03125,808.59375,-541.015625,1.0592403230353586,0.3481931857728688,-1.1252137687607444,-1885,-1954,-2255,3814,317,100691
12:7:20.539,1772,315.4296875,816.40625,-552.734375,1.033583983031042,0.3530801076784529,-1.1288789601899325,-1887,-1956,-2258,3814,317,100691
12:7:20.560,1773,319.3359375,815.4296875,-555.6640625,1.0189232173142897,0.3262020371977402,-1.160643952576229,-1895,-1960,-2238,3814,317,100691
12:7:20.580,1774,309.5703125,833.0078125,-564.453125,1.0458012877950025,0.38362336958835364,-1.1985175973445061,-1890,-1944,-2243,3814,317,100691
12:7:20.601,1775,319.3359375,819.3359375,-600.5859375,1.116661655425972,0.4447098934081552,-1.1435397259066848,-1906,-1957,-2243,3814,317,100691
12:7:20.612,1776,341.796875,782.2265625,-627.9296875,1.2021827887736944,0.4434881629317592,-1.1496483782886648,-1891,-1953,-2244,3814,317,100691
12:7:20.632,1777,329.1015625,773.4375,-624.0234375,1.3329079497480694,0.45204027626653137,-1.1557570306706453,-1901,-1955,-2225,3814,317,100691
12:7:20.653,1778,319.3359375,771.484375,-634.765625,1.4953981031087415,0.4642575810304917,-1.1349876125719125,-1896,-1952,-2226,3814,317,100691
12:7:20.673,1779,320.3125,713.8671875,-631.8359375,1.5955800021732158,0.4838052686528282,-1.038470904936626,-1912,-1964,-2225,3814,317,100691
12:7:20.693,1780,335.9375,649.4140625,-652.34375,1.623679803130325,0.41050144006906636,-0.9370672753957556,-1918,-1970,-2218,3814,317,100691
12:7:20.703,1781,333.984375,596.6796875,-717.7734375,1.5809192364564637,0.2895501229058593,-0.8478809506188453,-1919,-1967,-2217,3814,317,100691
12:7:20.724,1782,322.265625,563.4765625,-739.2578125,1.3756685164219307,0.1307251609743753,-0.8210028801381327,-1918,-1980,-2216,3814,317,100691
12:7:20.745,1783,357.421875,594.7265625,-743.1640625,1.028697061125458,-0.04398229715025711,-0.9602801544472802,-1920,-1982,-2205,3814,317,100691
12:7:20.765,1784,364.2578125,583.984375,-787.109375,0.5057964172279568,-0.2687807048071268,-1.2290608592544068,-1921,-1984,-2205,3814,317,100691
12:7:20.775,1785,282.2265625,510.7421875,-746.09375,0.26267205242514663,-0.2919935838586513,-1.2815952697394362,-1930,-1981,-2200,3814,317,100691
12:7:20.796,1786,219.7265625,575.1953125,-691.40625,0.5803219762881145,-0.2516764781375823,-1.0616837839881508,-1939,-1979,-2195,3814,317,100691
12:7:20.816,1787,237.3046875,644.53125,-710.9375,0.8124507668033605,-0.20036379812894903,-0.9602801544472802,-1944,-1977,-2214,3814,317,100691
12:7:20.837,1788,224.609375,653.3203125,-794.921875,0.8808676734815382,-0.2211332162276816,-0.9199630487262113,-1941,-1974,-2176,3814,317,100691
12:7:20.858,1789,223.6328125,541.015625,-829.1015625,0.6181956210563916,-0.23945917337362205,-1.0067059125503293,-1950,-1978,-2182,3814,317,100691
12:7:20.868,1790,184.5703125,483.3984375,-825.1953125,0.5265658353266892,-0.2541199390903744,-1.0091493735031216,-1951,-1976,-2173,3814,317,100691
12:7:20.888,1791,147.4609375,458.0078125,-708.0078125,0.7354817467904105,-0.1893682238413848,-0.9309586230137754,-1961,-1981,-2165,3814,317,100691
12:7:20.908,1792,159.1796875,443.359375,-733.3984375,0.9602801544472802,-0.11728612573401895,-0.6524040743954804,-1968,-1977,-2175,3814,317,100691
12:7:20.929,1793,183.59375,375.9765625,-793.9453125,0.9077457439622509,-0.20525072003453318,-0.5021312257987687,-1973,-1981,-2162,3814,317,100691
12:7:20.939,1794,167.96875,115.234375,-792.96875,0.5119050696099369,-0.2345722514680379,-0.44959681531373935,-1972,-1988,-2156,3814,317,100691
12:7:20.959,1795,183.59375,80.078125,-710.9375,0.2235766771804736,-0.27611108766550296,-0.3286454981505323,-1973,-1992,-2177,3814,317,100691
12:7:20.979,1796,253.90625,211.9140625,-717.7734375,-0.014660765716752368,-0.2724458962363148,-0.23212879051524585,-1982,-1992,-2149,3814,317,100691
12:7:21.0,1797,272.4609375,231.4453125,-767.578125,-0.039095375244672985,-0.18570303241219668,-0.024434609527920613,-1986,-1989,-2152,3814,317,100691
12:7:21.21,1798,273.4375,223.6328125,-787.109375,0.0317649923862968,-0.09651670763528641,0.16126842288427604,-1989,-1992,-2160,3814,317,100691
12:7:21.31,1799,269.53125,241.2109375,-789.0625,-0.07330382858376185,-0.09162978572970232,0.24556782575560218,-1986,-1989,-2148,3814,317,100691
12:7:21.51,1800,253.90625,300.78125,-752.9296875,-0.14905111812031577,-0.06841690667817772,0.29932396671702755,-1984,-1993,-2145,3814,317,100691
12:7:21.71,1801,247.0703125,331.0546875,-781.25,-0.09162978572970232,0.010995574287564277,0.4715879638888679,-1984,-1990,-2152,3814,317,100691
12:7:21.91,1802,228.515625,291.9921875,-827.1484375,-0.0867428638241182,0.06597344572538566,0.6597344572538566,-1983,-1991,-2154,3808,317,100690
12:7:21.112,1803,214.84375,285.15625,-802.734375,-0.33719761148530447,0.13194689145077132,0.8014551925157961,-1987,-1991,-2157,3808,317,100690
12:7:21.122,1804,211.9140625,351.5625,-735.3515625,-0.5326744877086694,0.10262536001726659,0.9004153611038747,-1978,-1992,-2160,3808,317,100690
12:7:21.142,1805,222.65625,372.0703125,-777.34375,-0.5827654372409066,0.14905111812031577,1.029918791601854,-1972,-1995,-2165,3808,317,100690
12:7:21.163,1806,229.4921875,363.28125,-828.125,-0.5338962181850655,0.10506882097005865,1.2009610582972983,-1950,-1991,-2168,3808,317,100690
12:7:21.183,1807,214.84375,331.0546875,-796.875,-0.5998696639104512,0.06108652381980154,1.2950343049797925,-1965,-1993,-2176,3808,317,100690
12:7:21.193,1808,216.796875,381.8359375,-736.328125,-0.7855726963226478,-0.0012217304763960308,1.308473340220149,-1954,-1995,-2163,3808,317,100690
12:7:21.213,1809,250.0,461.9140625,-717.7734375,-0.7684684696531033,-0.010995574287564277,1.3952162040442673,-1958,-1996,-2166,3808,317,100690
12:7:21.234,1810,259.765625,486.328125,-702.1484375,-0.7330382858376185,0.023212879051524585,1.4844025288211775,-1948,-1994,-2173,3808,317,100690
12:7:21.254,1811,250.9765625,468.75,-692.3828125,-0.8491026810952413,0.06475171524898964,1.4538592669112766,-1943,-1993,-2184,3808,317,100690
12:7:21.274,1812,199.21875,492.1875,-702.1484375,-1.0128145649323095,0.019547687622336492,1.4147638916666034,-1942,-1996,-2180,3808,317,100690
12:7:21.284,1813,245.1171875,593.75,-693.359375,-0.9749409201640327,-0.12095131716320705,1.4477506145292964,-1923,-1999,-2182,3808,317,100690
12:7:21.305,1814,324.21875,707.03125,-707.03125,-1.1252137687607444,-0.12950343049797927,1.3109168011729413,-1928,-1997,-2179,3808,317,100690
12:7:21.325,1815,276.3671875,804.6875,-660.15625,-1.473406954533613,-0.2431243648028101,1.071457627799319,-1927,-1996,-2188,3808,317,100690
12:7:21.346,1816,282.2265625,955.078125,-684.5703125,-1.549154244070167,-0.27977627909469105,0.9590584239708841,-1902,-1982,-2198,3808,317,100690
12:7:21.366,1817,255.859375,1054.6875,-736.328125,-1.387885821185891,-0.2138028333693054,0.8698720991939739,-1923,-1986,-2206,3808,317,100690
12:7:21.376,1818,210.9375,1094.7265625,-749.0234375,-1.1423179954302887,-0.15271630954950383,0.7354817467904105,-1914,-1978,-2207,3808,317,100690
12:7:21.396,1819,178.7109375,1065.4296875,-807.6171875,-0.839328837284073,-0.07819075048934597,0.5998696639104512,-1915,-1974,-2209,3808,317,100690
12:7:21.458,1820,208.0078125,929.6875,-790.0390625,-0.4459316238845512,0.03420845333908886,0.39461894387591795,-1911,-1976,-2219,3808,317,100690
12:7:21.468,1821,249.0234375,861.328125,-773.4375,-0.3200933848157601,0.06475171524898964,0.35918876006043304,-1905,-1977,-2223,3808,317,100690
12:7:21.489,1822,288.0859375,796.875,-764.6484375,-0.2101376419401173,-0.004886921905584123,0.3127630019573839,-1904,-1972,-2230,3808,317,100690
12:7:21.510,1823,291.015625,777.34375,-745.1171875,-0.16859880574265224,-0.06841690667817772,0.2614503219487506,-1897,-1971,-2213,3808,317,100690
12:7:21.530,1824,286.1328125,754.8828125,-723.6328125,-0.1233947781159991,-0.1233947781159991,0.2150245638457014,-1901,-1975,-2222,3808,317,100690
12:7:21.541,1825,304.6875,747.0703125,-663.0859375,-0.01832595714594046,-0.13316862192716736,0.1710422666954443,-1901,-1976,-2222,3808,317,100690
12:7:21.561,1826,296.875,721.6796875,-651.3671875,-0.024434609527920613,-0.12828170002158323,0.11728612573401895,-1903,-1972,-2234,3808,317,100690
12:7:21.582,1827,289.0625,675.78125,-663.0859375,-0.0012217304763960308,-0.11606439525762292,0.1148426647812269,-1907,-1980,-2226,3808,317,100690
12:7:21.603,1828,305.6640625,685.546875,-657.2265625,0.01832595714594046,-0.11728612573401895,0.0989601685880785,-1903,-1981,-2226,3808,317,100690
12:7:21.613,1829,308.59375,659.1796875,-666.015625,-0.004886921905584123,-0.13805554383275148,0.12950343049797927,-1905,-1978,-2214,3808,317,100690
12:7:21.634,1830,300.78125,640.625,-659.1796875,-0.0317649923862968,-0.15760323145508798,0.1075122819228507,-1904,-1971,-2220,3808,317,100690
12:7:21.654,1831,313.4765625,630.859375,-638.671875,-0.08552113334772216,-0.15271630954950383,0.1111774733520388,-1907,-1980,-2206,3808,317,100690
12:7:21.675,1832,329.1015625,620.1171875,-636.71875,-0.08429940287132612,-0.1356120828799594,0.11606439525762292,-1910,-1978,-2218,3808,317,100690
12:7:21.695,1833,337.890625,606.4453125,-653.3203125,-0.1233947781159991,-0.13683381335635544,0.17592918860102844,-1904,-1974,-2234,3808,317,100690
12:7:21.705,1834,359.375,600.5859375,-652.34375,-0.15393804002589986,-0.1820378409830086,0.21258110289290938,-1901,-1971,-2226,3808,317,100690
12:7:21.746,1835,383.7890625,559.5703125,-644.53125,-0.11239920382843484,-0.17715091907742447,0.2516764781375823,-1905,-1972,-2212,3808,317,100690
12:7:21.767,1836,405.2734375,560.546875,-631.8359375,-0.1661553447898602,-0.24923301718479027,0.395840674352314,-1906,-1975,-2221,3808,317,100690
12:7:21.777,1837,403.3203125,556.640625,-645.5078125,-0.2186897552748895,-0.2846632010002752,0.4300491276914028,-1901,-1981,-2225,3808,317,100690
12:7:21.798,1838,398.4375,538.0859375,-660.15625,-0.39339721339952194,-0.35918876006043304,0.4935791124639964,-1906,-1980,-2225,3808,317,100690
12:7:21.819,1839,405.2734375,574.21875,-643.5546875,-0.4825835381764321,-0.40317105721069013,0.5693264020005504,-1901,-1983,-2220,3808,317,100690
12:7:21.839,1840,396.484375,600.5859375,-652.34375,-0.5876523591464908,-0.4447098934081552,0.6731734924942129,-1901,-1979,-2212,3808,317,100690
12:7:21.870,1841,377.9296875,617.1875,-666.015625,-0.6536258048718764,-0.4618141200776996,0.748920782030767,-1893,-1975,-2212,3808,317,100690
12:7:21.891,1842,358.3984375,617.1875,-658.203125,-0.6841690667817772,-0.5204571829447091,0.7342600163140146,-1907,-1980,-2225,3808,317,100690
12:7:21.912,1843,352.5390625,684.5703125,-631.8359375,-0.7684684696531033,-0.6157521601035995,0.751364242983559,-1908,-1982,-2221,3808,317,100690
12:7:21.922,1844,343.75,720.703125,-641.6015625,-0.8613199858592017,-0.6524040743954804,0.7745771220350836,-1907,-1975,-2228,3808,317,100690
12:7:21.942,1845,298.828125,772.4609375,-647.4609375,-0.9456193887305279,-0.7012732934513217,0.7843509658462519,-1908,-1979,-2224,3808,317,100690
12:7:21.964,1846,281.25,835.9375,-648.4375,-0.9822713030224087,-0.7733553915586875,0.7257079029792424,-1910,-1974,-2217,3808,317,100690
12:7:21.984,1847,252.9296875,889.6484375,-678.7109375,-0.9541715020653,-0.8405505677604692,0.6597344572538566,-1908,-1976,-2225,3808,317,100690
12:7:21.995,1848,248.046875,948.2421875,-672.8515625,-0.7599163563183312,-0.8271115325201129,0.6084217772452234,-1912,-1970,-2224,3808,317,100690
12:7:22.15,1849,228.515625,1000.0,-652.34375,-0.560774288665778,-0.7257079029792424,0.5400048705670456,-1911,-1969,-2222,3808,317,100690
12:7:22.36,1850,237.3046875,1045.8984375,-646.484375,-0.45814892864851153,-0.6585127267774605,0.41905355340383854,-1914,-1968,-2223,3808,317,100690
12:7:22.56,1851,240.234375,994.140625,-652.34375,-0.4593706591249076,-0.6670648401122328,0.27611108766550296,-1908,-1966,-2214,3808,317,100690
12:7:22.77,1852,254.8828125,967.7734375,-650.390625,-0.27611108766550296,-0.6719517620178169,0.12095131716320705,-1920,-1968,-2211,3826,317,100687
12:7:22.87,1853,238.28125,960.9375,-672.8515625,-0.07941248096574201,-0.6902777191637574,0.014660765716752368,-1925,-1967,-2221,3826,317,100687
12:7:22.107,1854,256.8359375,997.0703125,-647.4609375,0.16004669240788005,-0.7183775201208661,-0.14905111812031577,-1928,-1969,-2213,3826,317,100687
12:7:22.128,1855,245.1171875,950.1953125,-651.3671875,0.09773843811168245,-0.8197811496617367,-0.3420845333908886,-1922,-1959,-2211,3826,317,100687
12:7:22.149,1856,225.5859375,855.46875,-625.0,0.1710422666954443,-0.678060414399797,-0.4276056667386108,-1941,-1963,-2195,3826,317,100687
12:7:22.159,1857,231.4453125,843.75,-588.8671875,0.4153883619746504,-0.5375614096142536,-0.5387831400906496,-1948,-1967,-2197,3826,317,100687
12:7:22.180,1858,209.9609375,899.4140625,-529.296875,0.6352998477259361,-0.55710909723659,-0.6560692658246685,-1948,-1960,-2198,3826,317,100687
12:7:22.200,1859,169.921875,916.9921875,-557.6171875,0.7733553915586875,-0.5253441048502933,-0.7929030791810241,-1958,-1968,-2194,3826,317,100687
12:7:22.222,1860,166.015625,837.890625,-653.3203125,0.8234463410909247,-0.4850269991292242,-0.911410935391439,-1966,-1967,-2181,3826,317,100687
12:7:22.242,1861,132.8125,681.640625,-629.8828125,0.7721336610822913,-0.6927211801165495,-1.0042624515975374,-1976,-1976,-2167,3826,317,100687
12:7:22.252,1862,182.6171875,682.6171875,-657.2265625,0.984714763975201,-0.6658431096358368,-0.9260717011081913,-1979,-1969,-2179,3826,317,100687
12:7:22.273,1863,202.1484375,781.25,-679.6875,0.9786061115932208,-0.8026769229921922,-0.9627236154000722,-1989,-1980,-2155,3826,317,100687
12:7:22.293,1864,173.828125,736.328125,-658.203125,0.992045146833577,-0.6023131248632432,-0.8307767239493008,-2001,-1983,-2139,3826,317,100687
12:7:22.314,1865,139.6484375,695.3125,-634.765625,1.150870108765061,-0.3420845333908886,-0.5705481324769464,-1998,-1984,-2143,3826,317,100687
12:7:22.324,1866,161.1328125,607.421875,-672.8515625,1.1093312725675961,-0.2907718533822553,-0.3481931857728688,-2011,-1988,-2137,3826,317,100687
12:7:22.345,1867,151.3671875,473.6328125,-654.296875,1.0470230182713984,-0.238237442897226,-0.1905899543177808,-2018,-2002,-2132,3826,317,100687
12:7:22.365,1868,179.6875,377.9296875,-675.78125,0.8234463410909247,-0.2724458962363148,-0.16859880574265224,-2023,-2006,-2127,3826,317,100687
12:7:22.386,1869,215.8203125,333.984375,-681.640625,0.41172317054546237,-0.3139847324337799,-0.19669860669976097,-2020,-2013,-2133,3826,317,100687
12:7:22.406,1870,223.6328125,278.3203125,-710.9375,0.07208209810736582,-0.33597588100890846,-0.17592918860102844,-2028,-2017,-2123,3826,317,100687
12:7:22.416,1871,217.7734375,214.84375,-707.03125,-0.09651670763528641,-0.33719761148530447,-0.12461650859239513,-2029,-2017,-2129,3826,317,100687
12:7:22.508,1872,224.609375,243.1640625,-736.328125,-0.24801128670839426,-0.29810223624063154,-0.04642575810304917,-2025,-2012,-2127,3826,317,100687
12:7:22.529,1873,211.9140625,270.5078125,-717.7734375,-0.2431243648028101,-0.2076941809873252,0.05742133239061345,-2031,-2013,-2123,3826,317,100687
12:7:22.549,1874,182.6171875,340.8203125,-694.3359375,-0.1893682238413848,-0.1233947781159991,0.16493361431346415,-2032,-2011,-2124,3826,317,100687
12:7:22.569,1875,167.96875,391.6015625,-698.2421875,-0.1905899543177808,-0.019547687622336492,0.27733281814189903,-2035,-2015,-2134,3826,317,100687
12:7:22.580,1876,169.921875,406.25,-728.515625,-0.16126842288427604,0.05986479334340551,0.39461894387591795,-2033,-2007,-2127,3826,317,100687
12:7:22.600,1877,144.53125,485.3515625,-708.984375,-0.15882496193148402,0.17837264955382048,0.4948008429403924,-2031,-2011,-2132,3826,317,100687
12:7:22.621,1878,120.1171875,521.484375,-625.0,-0.2907718533822553,0.32131511529215606,0.6096435077216195,-2029,-2008,-2126,3826,317,100687
12:7:22.641,1879,130.859375,543.9453125,-622.0703125,-0.5290092962794813,0.43615778007338296,0.7574728953655392,-2004,-1998,-2127,3826,317,100687
12:7:22.662,1880,134.765625,582.03125,-660.15625,-0.6805038753525892,0.5241223743738972,0.8454374896660533,-2020,-2004,-2137,3826,317,100687
12:7:22.672,1881,143.5546875,571.2890625,-659.1796875,-0.7892378877518359,0.48991392103480835,0.8417722982368653,-2011,-2004,-2141,3826,317,100687
12:7:22.692,1882,176.7578125,607.421875,-653.3203125,-0.8038986534685881,0.4214970143566306,0.8772024820523501,-2007,-1996,-2142,3826,317,100687
12:7:22.713,1883,167.96875,666.015625,-623.046875,-0.8552113334772216,0.4605923896013036,0.8906415172927065,-1992,-1989,-2147,3826,317,100687
12:7:22.733,1884,183.59375,663.0859375,-596.6796875,-0.9395107363485476,0.6206390820091836,0.9651670763528643,-1987,-1989,-2140,3826,317,100687
12:7:22.744,1885,201.171875,730.46875,-612.3046875,-0.6817256058289851,0.6120869686744114,0.9077457439622509,-1982,-1987,-2161,3826,317,100687
12:7:22.764,1886,202.1484375,765.625,-557.6171875,-0.5998696639104512,0.7073819458333017,0.8014551925157961,-1976,-1989,-2168,3826,317,100687
12:7:22.785,1887,273.4375,819.3359375,-639.6484375,-0.31520646291017596,0.7831292353698558,0.8405505677604692,-1964,-1985,-2172,3826,317,100687
12:7:22.805,1888,231.4453125,848.6328125,-685.546875,-0.15882496193148402,0.8503244115716375,0.7110471372624899,-1951,-1988,-2177,3826,317,100687
12:7:22.825,1889,246.09375,829.1015625,-580.078125,-0.1478293876439197,0.913854396344231,0.45814892864851153,-1947,-1989,-2186,3826,317,100687
12:7:22.835,1890,285.15625,809.5703125,-595.703125,-0.2528982086139784,0.8600982553828056,0.34330626386728463,-1934,-1984,-2190,3826,317,100687
12:7:22.856,1891,312.5,902.34375,-685.546875,-0.09651670763528641,0.8723155601467659,0.3457497248200767,-1928,-1989,-2200,3826,317,100687
12:7:22.876,1892,304.6875,951.171875,-722.65625,0.1148426647812269,0.8026769229921922,0.2076941809873252,-1926,-1988,-2191,3826,317,100687
12:7:22.897,1893,310.546875,922.8515625,-683.59375,0.12950343049797927,0.8112290363269644,0.024434609527920613,-1915,-1984,-2203,3826,317,100687
12:7:22.907,1894,333.984375,902.34375,-698.2421875,0.09773843811168245,0.755029434412747,-0.07452555906015788,-1911,-1990,-2209,3826,317,100687
12:7:22.928,1895,347.65625,850.5859375,-753.90625,-0.013439035240356337,0.6585127267774605,-0.06963863715457375,-1910,-1994,-2215,3826,317,100687
12:7:22.948,1896,383.7890625,843.75,-726.5625,0.0867428638241182,0.6304129258203519,-0.1307251609743753,-1907,-1993,-2215,3826,317,100687
12:7:22.969,1897,400.390625,802.734375,-702.1484375,-0.026878070480712675,0.5338962181850655,-0.17592918860102844,-1902,-1992,-2214,3826,317,100687
12:7:22.990,1898,385.7421875,810.546875,-745.1171875,-0.10873401239924674,0.3298672286269283,-0.14049900478554353,-1902,-1989,-2227,3826,317,100687
12:7:23.0,1899,398.4375,735.3515625,-717.7734375,-0.12217304763960309,0.24556782575560218,-0.11972958668681102,-1895,-1988,-2222,3826,317,100687
12:7:23.21,1900,416.015625,727.5390625,-681.640625,-0.10629055144645469,0.17959438003021652,-0.11239920382843484,-1888,-1980,-2226,3826,317,100687
12:7:23.41,1901,412.109375,731.4453125,-652.34375,-0.08429940287132612,0.1111774733520388,-0.10506882097005865,-1894,-1983,-2232,3826,317,100687
12:7:23.62,1902,408.203125,730.46875,-640.625,-0.0158824961931484,0.06475171524898964,-0.06597344572538566,-1893,-1981,-2228,3820,317,100685
12:7:23.72,1903,395.5078125,715.8203125,-604.4921875,0.039095375244672985,0.05986479334340551,-0.05497787143782139,-1897,-1987,-2225,3820,317,100685
12:7:23.92,1904,402.34375,687.5,-596.6796875,0.05742133239061345,0.06597344572538566,-0.03787364476827696,-1878,-1979,-2223,3820,317,100685
12:7:23.112,1905,396.484375,666.9921875,-601.5625,0.04642575810304917,0.05375614096142535,-0.05009094953223726,-1871,-1981,-2227,3820,317,100685
12:7:23.133,1906,401.3671875,668.9453125,-594.7265625,0.05986479334340551,0.019547687622336492,-0.07086036763096978,-1895,-1989,-2224,3820,317,100685
12:7:23.153,1907,392.578125,681.640625,-583.0078125,0.04398229715025711,0.024434609527920613,-0.06841690667817772,-1891,-1981,-2217,3820,317,100685
12:7:23.163,1908,392.578125,691.40625,-574.21875,0.06597344572538566,0.023212879051524585,-0.05497787143782139,-1897,-1982,-2213,3820,317,100685
12:7:23.184,1909,375.0,704.1015625,-566.40625,0.0671951762017817,0.06230825429619757,-0.0476474885794452,-1896,-1986,-2212,3820,317,100685
12:7:23.204,1910,375.0,707.03125,-594.7265625,0.06475171524898964,0.10506882097005865,-0.04642575810304917,-1897,-1985,-2223,3820,317,100685
12:7:23.224,1911,360.3515625,730.46875,-610.3515625,0.06108652381980154,0.09040805525330627,-0.06963863715457375,-1891,-1986,-2225,3820,317,100685
12:7:23.245,1912,359.375,750.0,-605.46875,0.08063421144213802,0.0952949771588904,-0.11606439525762292,-1893,-1987,-2220,3820,317,100685
12:7:23.255,1913,346.6796875,773.4375,-601.5625,0.1307251609743753,0.12217304763960309,-0.14538592669112765,-1894,-1989,-2227,3820,317,100685
12:7:23.276,1914,338.8671875,783.203125,-609.375,0.20647245051092922,0.16737707526625623,-0.1869247628885927,-1895,-1989,-2214,3820,317,100685
12:7:23.297,1915,309.5703125,802.734375,-584.9609375,0.18448130193580062,0.1905899543177808,-0.2907718533822553,-1894,-1989,-2222,3820,317,100685
12:7:23.317,1916,291.015625,852.5390625,-560.546875,0.15149457907310784,0.22724186860966175,-0.4605923896013036,-1894,-1987,-2207,3820,317,100685
12:7:23.348,1917,297.8515625,864.2578125,-621.09375,0.1466076571675237,0.24434609527920617,-0.5900958200992829,-1892,-1989,-2203,3820,317,100685
12:7:23.368,1918,284.1796875,853.515625,-639.6484375,0.24068090385001806,0.2687807048071268,-0.7269296334556383,-1892,-1984,-2218,3820,317,100685
12:7:23.388,1919,301.7578125,867.1875,-636.71875,0.30543261909900765,0.2663372438543347,-0.8723155601467659,-1897,-1979,-2213,3820,317,100685
12:7:23.409,1920,317.3828125,892.578125,-650.390625,0.33475415053251245,0.2235766771804736,-1.0213666782670816,-1898,-1983,-2221,3820,317,100685
12:7:23.419,1921,333.0078125,908.203125,-685.546875,0.40317105721069013,0.16493361431346415,-1.1252137687607444,-1892,-1979,-2223,3820,317,100685
12:7:23.440,1922,325.1953125,904.296875,-722.65625,0.5033529562751646,0.1233947781159991,-1.1887437535333378,-1908,-1973,-2222,3820,317,100685
12:7:23.460,1923,333.984375,889.6484375,-720.703125,0.597426202957659,0.05986479334340551,-1.2290608592544068,-1911,-1972,-2217,3820,317,100685
12:7:23.491,1924,340.8203125,881.8359375,-730.46875,0.7354817467904105,0.0012217304763960308,-1.2217304763960306,-1916,-1969,-2218,3820,317,100685
12:7:23.511,1925,344.7265625,886.71875,-729.4921875,0.9016370915802707,-0.0158824961931484,-1.1704177963873974,-1918,-1966,-2211,3820,317,100685
12:7:23.532,1926,335.9375,875.0,-710.9375,0.9834930334988048,-0.0635299847725936,-1.196074136391714,-1931,-1964,-2204,3820,317,100685
12:7:23.552,1927,333.984375,837.890625,-704.1015625,0.9395107363485476,-0.06597344572538566,-1.2241739373488227,-1928,-1966,-2212,3820,317,100685
12:7:23.573,1928,333.984375,765.625,-708.984375,0.8564330639536176,-0.16249015336067207,-1.26815623449908,-1919,-1963,-2204,3820,317,100685
12:7:23.583,1929,301.7578125,701.171875,-707.03125,0.8197811496617367,-0.1893682238413848,-1.2754866173574562,-1941,-1971,-2210,3820,317,100685
12:7:23.603,1930,275.390625,704.1015625,-691.40625,0.9480628496833199,-0.2431243648028101,-1.230282589730803,-1952,-1966,-2201,3820,317,100685
12:7:23.623,1931,262.6953125,701.171875,-683.59375,1.0873401239924674,-0.278554548618295,-1.1288789601899325,-1957,-1967,-2194,3820,317,100685
12:7:23.643,1932,241.2109375,685.546875,-708.0078125,1.2657127735462879,-0.3384193419617005,-1.0421360963658144,-1966,-1972,-2186,3820,317,100685
12:7:23.767,1933,214.84375,654.296875,-711.9140625,1.312138531649337,-0.35185837720205687,-1.029918791601854,-1968,-1977,-2178,3820,317,100685
12:7:23.787,1934,206.0546875,600.5859375,-714.84375,1.26815623449908,-0.3872885610175418,-1.0812314716104872,-1981,-1983,-2165,3820,317,100685
12:7:23.808,1935,175.78125,556.640625,-744.140625,1.0787880106576953,-0.42638393626221477,-1.0861183935160714,-1977,-1984,-2163,3820,317,100685
12:7:23.829,1936,153.3203125,502.9296875,-734.375,0.8845328649107264,-0.4593706591249076,-1.1239920382843482,-1987,-1986,-2154,3820,317,100685
12:7:23.839,1937,95.703125,504.8828125,-743.1640625,0.7464773210779747,-0.4056145181634822,-1.1239920382843482,-1998,-1991,-2141,3820,317,100685
12:7:23.860,1938,66.40625,521.484375,-758.7890625,0.751364242983559,-0.40927970959267035,-1.0824532020868831,-2008,-1991,-2150,3820,317,100685
