Timestamp,SampleNr,AccX [mg],AccY [mg],AccZ [mg],GyrX [rad/s],GyrY [rad/s],GyrZ [rad/s],MagX [mGs],MagY [mGs],-MagZ [mGs],Battery [mV],Temperature [0.1C],Pressure[Pa]
11:53:22.450,19167,-37.109375,161.1328125,-1000.9765625,-0.048869219055841226,-0.0671951762017817,-0.021991148575128554,-1777,-1722,-911,3902,307,100637
11:53:22.470,19168,-37.109375,160.15625,-1000.9765625,-0.039095375244672985,-0.08552113334772216,-0.0317649923862968,-1776,-1725,-915,3902,307,100637
11:53:22.491,19169,-37.109375,166.015625,-995.1171875,-0.0635299847725936,-0.0989601685880785,-0.03420845333908886,-1776,-1725,-915,3902,307,100637
11:53:22.512,19170,-31.25,165.0390625,-987.3046875,-0.05742133239061345,-0.0989601685880785,-0.04031710572106901,-1776,-1725,-915,3902,307,100637
11:53:22.522,19171,-35.15625,160.15625,-973.6328125,-0.08429940287132612,-0.08796459430051422,-0.0635299847725936,-1776,-1725,-915,3902,307,100637
11:53:22.542,19172,-39.0625,157.2265625,-968.75,-0.09040805525330627,-0.09651670763528641,-0.052534410485029326,-1773,-1723,-929,3902,307,100637
11:53:22.563,19173,-38.0859375,157.2265625,-981.4453125,-0.08429940287132612,-0.08552113334772216,-0.07696902001294993,-1773,-1723,-929,3902,307,100637
11:53:22.583,19174,-34.1796875,134.765625,-977.5390625,-0.0867428638241182,-0.08796459430051422,-0.0635299847725936,-1773,-1723,-929,3902,307,100637
11:53:22.604,19175,-38.0859375,146.484375,-976.5625,-0.1075122819228507,-0.08918632477691024,-0.051312680008633295,-1773,-1723,-929,3902,307,100637
11:53:22.614,19176,-35.15625,150.390625,-979.4921875,-0.11972958668681102,-0.09773843811168245,-0.048869219055841226,-1773,-1723,-929,3902,307,100637
11:53:22.635,19177,-33.203125,150.390625,-975.5859375,-0.11972958668681102,-0.09162978572970232,-0.04276056667386108,-1771,-1728,-906,3902,307,100637
11:53:22.655,19178,-46.875,159.1796875,-981.4453125,-0.1111774733520388,-0.07819075048934597,-0.05497787143782139,-1771,-1728,-906,3902,307,100637
11:53:22.676,19179,-43.9453125,156.25,-961.9140625,-0.06597344572538566,-0.05742133239061345,-0.06475171524898964,-1771,-1728,-906,3902,307,100637
11:53:22.686,19180,-35.15625,143.5546875,-971.6796875,-0.04398229715025711,-0.06597344572538566,-0.06597344572538566,-1771,-1728,-906,3902,307,100637
11:53:22.706,19181,-45.8984375,129.8828125,-976.5625,-0.13805554383275148,-0.06841690667817772,-0.03787364476827696,-1771,-1728,-906,3902,307,100637
11:53:22.727,19182,-46.875,159.1796875,-995.1171875,-0.1466076571675237,-0.0635299847725936,-0.026878070480712675,-1778,-1722,-915,3902,307,100637
11:53:22.767,19183,-41.9921875,165.0390625,-986.328125,-0.07330382858376185,-0.06597344572538566,-0.026878070480712675,-1778,-1722,-915,3902,307,100637
11:53:22.777,19184,-36.1328125,156.25,-995.1171875,-0.03054326190990077,-0.07574728953655392,-0.026878070480712675,-1778,-1722,-915,3902,307,100637
11:53:22.798,19185,-45.8984375,152.34375,-998.046875,-0.08063421144213802,-0.07452555906015788,-0.03543018381548489,-1778,-1722,-915,3902,307,100637
11:53:22.818,19186,-41.015625,162.109375,-998.046875,-0.10995574287564278,-0.08063421144213802,-0.04276056667386108,-1773,-1718,-905,3902,307,100637
11:53:22.838,19187,-41.015625,169.921875,-994.140625,-0.10629055144645469,-0.08552113334772216,-0.03665191429188092,-1773,-1718,-905,3902,307,100637
11:53:22.859,19188,-49.8046875,164.0625,-997.0703125,-0.07330382858376185,-0.07330382858376185,-0.02809980095710871,-1773,-1718,-905,3902,307,100637
11:53:22.869,19189,-40.0390625,150.390625,-1005.859375,-0.05497787143782139,-0.09040805525330627,-0.025656340004316647,-1773,-1718,-905,3902,307,100637
11:53:22.889,19190,-34.1796875,153.3203125,-980.46875,-0.09407324668249437,-0.09407324668249437,-0.0317649923862968,-1773,-1718,-905,3902,307,100637
11:53:22.910,19191,-44.921875,163.0859375,-968.75,-0.13683381335635544,-0.0989601685880785,-0.03787364476827696,-1766,-1714,-923,3902,307,100637
11:53:22.930,19192,-45.8984375,181.640625,-979.4921875,-0.1111774733520388,-0.11728612573401895,-0.05742133239061345,-1766,-1714,-923,3902,307,100637
11:53:22.940,19193,-43.9453125,172.8515625,-972.65625,-0.05619960191421742,-0.09285151620609834,-0.06597344572538566,-1766,-1714,-923,3902,307,100637
11:53:22.961,19194,-48.828125,155.2734375,-961.9140625,-0.03298672286269283,-0.0830776723949301,-0.05497787143782139,-1766,-1714,-923,3902,307,100637
11:53:22.981,19195,-46.875,149.4140625,-953.125,-0.07574728953655392,-0.08063421144213802,-0.04642575810304917,-1766,-1714,-923,3902,307,100637
11:53:23.1,19196,-48.828125,148.4375,-960.9375,-0.08429940287132612,-0.07696902001294993,-0.03420845333908886,-1781,-1723,-912,3902,307,100637
11:53:23.32,19197,-49.8046875,157.2265625,-974.609375,-0.10629055144645469,-0.0671951762017817,-0.03787364476827696,-1781,-1723,-912,3902,307,100637
11:53:23.52,19198,-49.8046875,177.734375,-987.3046875,-0.06230825429619757,-0.05497787143782139,-0.04153883619746505,-1781,-1723,-912,3902,307,100637
11:53:23.73,19199,-41.015625,158.203125,-978.515625,0.0,-0.052534410485029326,-0.03665191429188092,-1781,-1723,-912,3902,307,100637
11:53:23.94,19200,-41.015625,132.8125,-973.6328125,-0.009773843811168246,-0.07452555906015788,-0.04153883619746505,-1781,-1723,-926,3902,307,100637
11:53:23.114,19201,-46.875,141.6015625,-994.140625,-0.1233947781159991,-0.08796459430051422,-0.05009094953223726,-1781,-1723,-926,3902,307,100637
11:53:23.124,19202,-46.875,167.96875,-998.046875,-0.14905111812031577,-0.0830776723949301,-0.052534410485029326,-1781,-1723,-926,3902,307,100640
11:53:23.144,19203,-41.015625,169.921875,-970.703125,-0.06108652381980154,-0.06963863715457375,-0.0476474885794452,-1781,-1723,-926,3902,307,100640
11:53:23.185,19204,-43.9453125,143.5546875,-971.6796875,-0.03665191429188092,-0.06230825429619757,-0.051312680008633295,-1781,-1723,-926,3902,307,100640
11:53:23.195,19205,-53.7109375,127.9296875,-999.0234375,-0.12950343049797927,-0.06475171524898964,-0.03543018381548489,-1774,-1721,-917,3902,307,100640
11:53:23.216,19206,-41.015625,164.0625,-999.0234375,-0.11850785621041499,-0.06230825429619757,-0.013439035240356337,-1774,-1721,-917,3902,307,100640
11:53:23.236,19207,-35.15625,166.9921875,-994.140625,-0.039095375244672985,-0.07819075048934597,-0.012217304763960306,-1774,-1721,-917,3902,307,100640
11:53:23.307,19208,-40.0390625,144.53125,-972.65625,-0.029321531433504737,-0.07941248096574201,-0.010995574287564277,-1774,-1721,-917,3902,307,100640
11:53:23.328,19209,-42.96875,156.25,-992.1875,-0.1148426647812269,-0.0830776723949301,-0.04031710572106901,-1774,-1721,-917,3902,307,100640
11:53:23.348,19210,-40.0390625,174.8046875,-986.328125,-0.13316862192716736,-0.08796459430051422,-0.06108652381980154,-1779,-1716,-913,3902,307,100640
11:53:23.368,19211,-43.9453125,150.390625,-974.609375,-0.11606439525762292,-0.09040805525330627,-0.04398229715025711,-1779,-1716,-913,3902,307,100640
11:53:23.378,19212,-44.921875,160.15625,-975.5859375,-0.1551597705022959,-0.08796459430051422,-0.0317649923862968,-1779,-1716,-913,3902,307,100640
11:53:23.398,19213,-45.8984375,165.0390625,-984.375,-0.10629055144645469,-0.06963863715457375,-0.020769418098732523,-1779,-1716,-913,3902,307,100640
11:53:23.419,19214,-37.109375,147.4609375,-973.6328125,-0.04520402762665313,-0.07330382858376185,-0.025656340004316647,-1779,-1716,-913,3902,307,100640
11:53:23.439,19215,-45.8984375,133.7890625,-963.8671875,-0.10873401239924674,-0.07086036763096978,-0.024434609527920613,-1782,-1719,-908,3902,307,100640
11:53:23.459,19216,-50.78125,154.296875,-976.5625,-0.1466076571675237,-0.08063421144213802,-0.01710422666954443,-1782,-1719,-908,3902,307,100640
11:53:23.470,19217,-52.734375,175.78125,-968.75,-0.1111774733520388,-0.0635299847725936,-0.008552113334772215,-1782,-1719,-908,3902,307,100640
11:53:23.531,19218,-47.8515625,161.1328125,-931.640625,-0.07696902001294993,-0.07086036763096978,-0.003665191429188092,-1782,-1719,-908,3902,307,100640
11:53:23.541,19219,-47.8515625,143.5546875,-887.6953125,-0.1233947781159991,-0.06230825429619757,0.0012217304763960308,-1780,-1715,-926,3902,307,100640
11:53:23.561,19220,-55.6640625,134.765625,-869.140625,-0.24556782575560218,-0.04398229715025711,-0.009773843811168246,-1780,-1715,-926,3902,307,100640
11:53:23.582,19221,-51.7578125,144.53125,-879.8828125,-0.38606683054114566,0.0024434609527920616,-0.020769418098732523,-1780,-1715,-926,3902,307,100640
11:53:23.602,19222,-42.96875,137.6953125,-876.953125,-0.477696616270848,0.05742133239061345,-0.04398229715025711,-1780,-1715,-926,3902,307,100640
11:53:23.623,19223,-50.78125,126.953125,-824.21875,-0.6499606134426883,0.05986479334340551,-0.0158824961931484,-1780,-1715,-926,3902,307,100640
11:53:23.633,19224,-53.7109375,182.6171875,-831.0546875,-0.7831292353698558,0.0671951762017817,0.009773843811168246,-1782,-1711,-910,3902,307,100640
11:53:23.653,19225,-34.1796875,227.5390625,-805.6640625,-0.7318165553612224,0.11972958668681102,0.006108652381980153,-1782,-1711,-910,3902,307,100640
11:53:23.673,19226,-35.15625,248.046875,-808.59375,-0.5400048705670456,0.2028072590817411,0.012217304763960306,-1782,-1711,-910,3902,307,100640
11:53:23.694,19227,-26.3671875,243.1640625,-854.4921875,-0.2944370448114434,0.3139847324337799,-0.029321531433504737,-1782,-1711,-910,3902,307,100640
11:53:23.714,19228,-22.4609375,204.1015625,-862.3046875,-0.15271630954950383,0.3897320219703338,0.0158824961931484,-1782,-1711,-910,3902,307,100640
11:53:23.724,19229,-5.859375,214.84375,-863.28125,-0.1356120828799594,0.4202752838802346,0.052534410485029326,-1775,-1689,-909,3902,307,100640
11:53:23.745,19230,5.859375,219.7265625,-857.421875,-0.13805554383275148,0.41783182292744253,0.09773843811168245,-1775,-1689,-909,3902,307,100640
11:53:23.765,19231,3.90625,234.375,-866.2109375,-0.16493361431346415,0.4166100924510465,0.08185594191853407,-1775,-1689,-909,3902,307,100640
11:53:23.785,19232,5.859375,270.5078125,-888.671875,-0.24801128670839426,0.4569271981721155,0.06475171524898964,-1775,-1689,-909,3902,307,100640
11:53:23.806,19233,-4.8828125,295.8984375,-905.2734375,-0.2101376419401173,0.5106833391335408,0.06108652381980154,-1753,-1678,-916,3902,307,100640
11:53:23.816,19234,9.765625,320.3125,-894.53125,-0.09285151620609834,0.5448917924726296,0.05619960191421742,-1753,-1678,-916,3902,307,100640
11:53:23.836,19235,72.265625,329.1015625,-905.2734375,-0.01832595714594046,0.5485569839018178,0.05497787143782139,-1753,-1678,-916,3902,307,100640
11:53:23.857,19236,83.984375,304.6875,-927.734375,-0.007330382858376184,0.5485569839018178,0.0158824961931484,-1753,-1678,-916,3902,307,100640
11:53:23.877,19237,101.5625,268.5546875,-922.8515625,-0.11239920382843484,0.5632177496185702,-0.04031710572106901,-1753,-1678,-916,3902,307,100640
11:53:23.887,19238,116.2109375,273.4375,-931.640625,-0.2345722514680379,0.555887366760194,-0.09407324668249437,-1732,-1679,-907,3902,307,100640
11:53:23.908,19239,123.046875,268.5546875,-904.296875,-0.2186897552748895,0.5827654372409066,-0.0989601685880785,-1732,-1679,-907,3902,307,100640
11:53:23.928,19240,176.7578125,251.953125,-862.3046875,-0.17959438003021652,0.6059783162924314,-0.07330382858376185,-1732,-1679,-907,3902,307,100640
11:53:23.948,19241,166.9921875,237.3046875,-857.421875,-0.16859880574265224,0.6401867696315202,-0.04520402762665313,-1732,-1679,-907,3902,307,100640
11:53:23.969,19242,172.8515625,226.5625,-850.5859375,-0.25900686099595854,0.6963863715457376,-0.0671951762017817,-1732,-1679,-907,3902,307,100640
11:53:23.979,19243,202.1484375,271.484375,-877.9296875,-0.23945917337362205,0.7354817467904105,-0.03665191429188092,-1701,-1676,-907,3902,307,100640
11:53:23.999,19244,238.28125,255.859375,-852.5390625,-0.07696902001294993,0.7782423134642715,-0.014660765716752368,-1701,-1676,-907,3902,307,100640
11:53:24.19,19245,224.609375,194.3359375,-844.7265625,0.007330382858376184,0.7819075048934596,-0.013439035240356337,-1701,-1676,-907,3902,307,100640
11:53:24.40,19246,222.65625,187.5,-822.265625,-0.2528982086139784,0.7892378877518359,0.0024434609527920616,-1701,-1676,-907,3902,307,100640
11:53:24.60,19247,272.4609375,283.203125,-845.703125,-0.4324925886441948,0.7953465401338161,0.0317649923862968,-1667,-1665,-909,3902,307,100640
11:53:24.70,19248,304.6875,324.21875,-854.4921875,-0.2919935838586513,0.8417722982368653,0.03543018381548489,-1667,-1665,-909,3902,307,100640
11:53:24.91,19249,323.2421875,258.7890625,-822.265625,-0.14538592669112765,0.915076126820627,-0.009773843811168246,-1667,-1665,-909,3902,307,100640
11:53:24.111,19250,304.6875,217.7734375,-807.6171875,-0.2724458962363148,0.9175195877734192,-0.02809980095710871,-1667,-1665,-909,3902,307,100640
11:53:24.131,19251,315.4296875,259.765625,-805.6640625,-0.39950586578150205,0.9358455449193596,0.04398229715025711,-1667,-1665,-909,3902,307,100640
11:53:24.142,19252,416.015625,290.0390625,-810.546875,-0.39706240482871,0.9602801544472802,0.1038470904936626,-1633,-1666,-911,3908,307,100640
11:53:24.162,19253,390.625,271.484375,-799.8046875,-0.39339721339952194,0.9834930334988048,0.10506882097005865,-1633,-1666,-911,3908,307,100640
11:53:24.182,19254,392.578125,258.7890625,-712.890625,-0.5717698629533424,1.03114052207825,0.06475171524898964,-1633,-1666,-911,3908,307,100640
11:53:24.202,19255,459.9609375,334.9609375,-710.9375,-0.6023131248632432,1.0836749325632793,0.058643062867009474,-1633,-1666,-911,3908,307,100640
11:53:24.223,19256,513.671875,373.046875,-760.7421875,-0.3384193419617005,1.1301006906663282,0.06475171524898964,-1633,-1666,-911,3908,307,100640
11:53:24.233,19257,476.5625,308.59375,-693.359375,-0.09285151620609834,1.2241739373488227,0.04520402762665313,-1591,-1651,-912,3908,307,100640
11:53:24.253,19258,501.953125,233.3984375,-657.2265625,-0.10140362954087055,1.308473340220149,0.0158824961931484,-1591,-1651,-912,3908,307,100640
11:53:24.273,19259,575.1953125,242.1875,-724.609375,-0.27611108766550296,1.347568715464822,0.014660765716752368,-1591,-1651,-912,3908,307,100640
11:53:24.293,19260,594.7265625,336.9140625,-721.6796875,-0.3005456971934236,1.3952162040442673,0.08918632477691024,-1591,-1651,-912,3908,307,100640
11:53:24.313,19261,640.625,365.234375,-631.8359375,-0.05986479334340551,1.4563027278640688,0.17959438003021652,-1534,-1636,-927,3908,307,100640
11:53:24.323,19262,703.125,340.8203125,-691.40625,0.2846632010002752,1.5222761735894546,0.1869247628885927,-1534,-1636,-927,3908,307,100640
11:53:24.344,19263,722.65625,353.515625,-726.5625,0.5473352534254218,1.5992451936024044,-0.006108652381980153,-1534,-1636,-927,3908,307,100640
11:53:24.436,19264,759.765625,266.6015625,-653.3203125,0.678060414399797,1.6163494202719488,-0.1710422666954443,-1534,-1636,-927,3908,307,100640
11:53:24.456,19265,788.0859375,205.078125,-624.0234375,0.6145304296272034,1.6578882564694137,-0.28099800957108706,-1534,-1636,-927,3908,307,100640
11:53:24.476,19266,712.890625,169.921875,-767.578125,0.4948008429403924,1.6358971078942852,-0.32498030672134415,-1483,-1648,-957,3908,307,100640
11:53:24.487,19267,767.578125,193.359375,-775.390625,0.44837508483734323,1.6285667250359088,-0.32375857624494814,-1483,-1648,-957,3908,307,100640
11:53:24.507,19268,844.7265625,227.5390625,-779.296875,0.41172317054546237,1.5906930802676322,-0.18325957145940464,-1483,-1648,-957,3908,307,100640
11:53:24.527,19269,810.546875,224.609375,-836.9140625,0.4422664324553632,1.5577063574049392,-0.07574728953655392,-1483,-1648,-957,3908,307,100640
11:53:24.547,19270,846.6796875,257.8125,-760.7421875,0.4398229715025711,1.547932513593771,-0.010995574287564277,-1483,-1648,-957,3908,307,100640
11:53:24.567,19271,890.625,257.8125,-753.90625,0.39706240482871,1.4892894507267616,0.0476474885794452,-1421,-1663,-984,3908,307,100640
11:53:24.578,19272,896.484375,274.4140625,-772.4609375,0.30543261909900765,1.4746286850100092,0.05619960191421742,-1421,-1663,-984,3908,307,100640
11:53:24.598,19273,896.484375,276.3671875,-717.7734375,0.17959438003021652,1.4391985011945243,0.09040805525330627,-1421,-1663,-984,3908,307,100640
11:53:24.659,19274,940.4296875,291.015625,-668.9453125,-0.08063421144213802,1.3842206297567028,0.13805554383275148,-1421,-1663,-984,3908,307,100640
11:53:24.670,19275,1001.953125,334.9609375,-573.2421875,-0.1710422666954443,1.4172073526193958,0.19303341527057283,-1363,-1675,-1044,3908,307,100640
11:53:24.690,19276,1015.625,320.3125,-595.703125,-0.1038470904936626,1.4196508135721877,0.21991148575128555,-1363,-1675,-1044,3908,307,100640
11:53:24.710,19277,944.3359375,256.8359375,-606.4453125,0.09651670763528641,1.4636331107224447,0.15638150097869194,-1363,-1675,-1044,3908,307,100640
11:53:24.731,19278,925.78125,211.9140625,-537.109375,0.14538592669112765,1.4966198335851377,0.1343903524035634,-1363,-1675,-1044,3908,307,100640
11:53:24.741,19279,950.1953125,200.1953125,-497.0703125,0.13194689145077132,1.4856242592975735,0.2309070600388498,-1363,-1675,-1044,3908,307,100640
11:53:24.762,19280,1034.1796875,239.2578125,-459.9609375,0.16859880574265224,1.470963493580821,0.30543261909900765,-1333,-1684,-1075,3908,307,100640
11:53:24.782,19281,1092.7734375,251.953125,-475.5859375,0.4056145181634822,1.470963493580821,0.2944370448114434,-1333,-1684,-1075,3908,307,100640
11:53:24.803,19282,1080.078125,177.734375,-493.1640625,0.6279694648675598,1.4355333097653364,0.15882496193148402,-1333,-1684,-1075,3908,307,100640
11:53:24.823,19283,1011.71875,71.2890625,-448.2421875,0.4618141200776996,1.3695598640399507,-0.003665191429188092,-1333,-1684,-1075,3908,307,100640
11:53:24.833,19284,1010.7421875,67.3828125,-389.6484375,0.03787364476827696,1.2363912421127832,-0.03665191429188092,-1333,-1684,-1075,3908,307,100640
11:53:24.854,19285,991.2109375,126.953125,-361.328125,-0.35552356863124496,1.1227703078079523,0.0024434609527920616,-1298,-1697,-1134,3908,307,100640
11:53:24.874,19286,972.65625,200.1953125,-341.796875,-0.5094616086571448,1.071457627799319,0.05742133239061345,-1298,-1697,-1134,3908,307,100640
11:53:24.894,19287,984.375,298.828125,-432.6171875,-0.29932396671702755,1.0580185925589627,0.04398229715025711,-1298,-1697,-1134,3908,307,100640
11:53:24.904,19288,991.2109375,258.7890625,-393.5546875,-0.0158824961931484,1.0543534011297746,-0.020769418098732523,-1298,-1697,-1134,3908,307,100640
11:53:24.925,19289,1023.4375,231.4453125,-336.9140625,-0.05742133239061345,0.9773843811168247,-0.04031710572106901,-1298,-1697,-1134,3908,307,100640
11:53:24.945,19290,1054.6875,247.0703125,-322.265625,-0.3384193419617005,0.8515461420480335,0.03054326190990077,-1274,-1704,-1169,3908,307,100640
11:53:24.966,19291,1047.8515625,242.1875,-332.03125,-0.5229006438975012,0.7929030791810241,0.08063421144213802,-1274,-1704,-1169,3908,307,100640
11:53:24.986,19292,1050.78125,315.4296875,-324.21875,-0.6145304296272034,0.7367034772668065,0.09407324668249437,-1274,-1704,-1169,3908,307,100640
11:53:24.997,19293,1016.6015625,314.453125,-320.3125,-0.5180137219919171,0.6951646410693415,0.09773843811168245,-1274,-1704,-1169,3908,307,100640
11:53:25.17,19294,998.046875,260.7421875,-311.5234375,-0.3628539514896212,0.6572909963010646,0.03054326190990077,-1259,-1701,-1216,3908,307,100640
11:53:25.38,19295,997.0703125,235.3515625,-306.640625,-0.3640756819660172,0.6047565858160352,-0.04031710572106901,-1259,-1701,-1216,3908,307,100640
11:53:25.58,19296,1000.9765625,251.953125,-306.640625,-0.36651914291880927,0.5216789134211052,-0.08185594191853407,-1259,-1701,-1216,3908,307,100640
11:53:25.68,19297,1004.8828125,278.3203125,-287.109375,-0.2907718533822553,0.43615778007338296,-0.09040805525330627,-1259,-1701,-1216,3908,307,100640
11:53:25.88,19298,1016.6015625,268.5546875,-255.859375,-0.08796459430051422,0.35185837720205687,-0.17226399717184035,-1259,-1701,-1216,3908,307,100640
11:53:25.109,19299,1040.0390625,231.4453125,-237.3046875,0.004886921905584123,0.3066543495754037,-0.22479840765686968,-1257,-1698,-1227,3908,307,100640
11:53:25.129,19300,1072.265625,237.3046875,-198.2421875,-0.0012217304763960308,0.2700024352835228,-0.2712241657599188,-1257,-1698,-1227,3908,307,100640
11:53:25.149,19301,1065.4296875,255.859375,-156.25,0.051312680008633295,0.2614503219487506,-0.3262020371977402,-1257,-1698,-1227,3908,307,100640
11:53:25.160,19302,1030.2734375,202.1484375,-129.8828125,0.29810223624063154,0.2895501229058593,-0.35430183815484895,-1257,-1698,-1227,3902,307,100641
11:53:25.180,19303,1008.7890625,203.125,-161.1328125,0.5204571829447091,0.30543261909900765,-0.3897320219703338,-1257,-1698,-1227,3902,307,100641
11:53:25.200,19304,996.09375,138.671875,-124.0234375,0.676838683923401,0.2907718533822553,-0.4068362486398782,-1250,-1687,-1253,3902,307,100641
11:53:25.221,19305,998.046875,105.46875,-60.546875,0.6023131248632432,0.23335052099164189,-0.35185837720205687,-1250,-1687,-1253,3902,307,100641
11:53:25.241,19306,986.328125,97.65625,-53.7109375,0.35063664672566086,0.1551597705022959,-0.2162462943220974,-1250,-1687,-1253,3902,307,100641
11:53:25.251,19307,983.3984375,166.9921875,-66.40625,0.2162462943220974,0.1148426647812269,-0.13316862192716736,-1250,-1687,-1253,3902,307,100641
11:53:25.272,19308,982.421875,188.4765625,-67.3828125,0.25900686099595854,0.07696902001294993,-0.08918632477691024,-1244,-1678,-1264,3902,307,100641
11:53:25.292,19309,988.28125,144.53125,-41.015625,0.25900686099595854,0.058643062867009474,-0.1148426647812269,-1244,-1678,-1264,3902,307,100641
11:53:25.312,19310,995.1171875,144.53125,-20.5078125,0.0671951762017817,0.0476474885794452,-0.13194689145077132,-1244,-1678,-1264,3902,307,100641
11:53:25.333,19311,996.09375,171.875,-16.6015625,-0.0867428638241182,0.03665191429188092,-0.12217304763960309,-1244,-1678,-1264,3902,307,100641
11:53:25.343,19312,995.1171875,219.7265625,-24.4140625,-0.10629055144645469,0.0476474885794452,-0.12583823906879116,-1244,-1678,-1264,3902,307,100641
11:53:25.363,19313,1005.859375,209.9609375,-36.1328125,-0.01710422666954443,0.08185594191853407,-0.1343903524035634,-1244,-1675,-1273,3902,307,100641
11:53:25.383,19314,1013.671875,187.5,-59.5703125,-0.009773843811168246,0.08063421144213802,-0.11972958668681102,-1244,-1675,-1273,3902,307,100641
11:53:25.403,19315,1005.859375,132.8125,-77.1484375,-0.16493361431346415,0.05497787143782139,-0.0867428638241182,-1244,-1675,-1273,3902,307,100641
11:53:25.414,19316,998.046875,138.671875,-104.4921875,-0.3262020371977402,0.012217304763960306,-0.03665191429188092,-1244,-1675,-1273,3902,307,100641
11:53:25.434,19317,1004.8828125,179.6875,-148.4375,-0.3738495257771854,-0.07330382858376185,0.04642575810304917,-1244,-1675,-1273,3902,307,100641
11:53:25.454,19318,999.0234375,215.8203125,-133.7890625,-0.3677408733952052,-0.1307251609743753,0.06108652381980154,-1245,-1669,-1271,3902,307,100641
11:53:25.474,19319,995.1171875,261.71875,-83.0078125,-0.3384193419617005,-0.1392772743091475,0.03054326190990077,-1245,-1669,-1271,3902,307,100641
11:53:25.495,19320,1002.9296875,272.4609375,-52.734375,-0.1893682238413848,-0.11606439525762292,-0.0158824961931484,-1245,-1669,-1271,3902,307,100641
11:53:25.505,19321,1005.859375,261.71875,-35.15625,-0.010995574287564277,-0.09285151620609834,-0.06475171524898964,-1245,-1669,-1271,3902,307,100641
11:53:25.525,19322,998.046875,229.4921875,-32.2265625,0.10995574287564278,-0.07330382858376185,-0.09040805525330627,-1242,-1673,-1270,3902,307,100641
11:53:25.566,19323,984.375,211.9140625,-29.296875,0.1148426647812269,-0.07941248096574201,-0.05375614096142535,-1242,-1673,-1270,3902,307,100641
11:53:25.586,19324,989.2578125,208.984375,-16.6015625,0.06963863715457375,-0.10506882097005865,0.01710422666954443,-1242,-1673,-1270,3902,307,100641
11:53:25.596,19325,989.2578125,196.2890625,-1.953125,-0.04276056667386108,-0.1466076571675237,0.05986479334340551,-1242,-1673,-1270,3902,307,100641
11:53:25.616,19326,969.7265625,215.8203125,6.8359375,-0.17470745812463243,-0.1710422666954443,0.04520402762665313,-1242,-1673,-1270,3902,307,100641
11:53:25.637,19327,960.9375,230.46875,-8.7890625,-0.2223549467040776,-0.12217304763960309,0.004886921905584123,-1247,-1672,-1275,3902,307,100641
11:53:25.657,19328,974.609375,242.1875,-23.4375,-0.1942551457469689,-0.07696902001294993,-0.009773843811168246,-1247,-1672,-1275,3902,307,100641
11:53:25.677,19329,981.4453125,242.1875,-28.3203125,-0.11239920382843484,-0.04153883619746505,-0.009773843811168246,-1247,-1672,-1275,3902,307,100641
11:53:25.687,19330,982.421875,227.5390625,-32.2265625,-0.08796459430051422,-0.021991148575128554,0.013439035240356337,-1247,-1672,-1275,3902,307,100641
11:53:25.708,19331,988.28125,236.328125,-30.2734375,-0.09407324668249437,-0.052534410485029326,0.0317649923862968,-1247,-1672,-1275,3902,307,100641
11:53:25.728,19332,994.140625,252.9296875,-32.2265625,-0.0867428638241182,-0.058643062867009474,0.01832595714594046,-1240,-1674,-1272,3902,307,100641
11:53:25.748,19333,989.2578125,253.90625,-39.0625,-0.04642575810304917,-0.05497787143782139,-0.021991148575128554,-1240,-1674,-1272,3902,307,100641
11:53:25.768,19334,989.2578125,222.65625,-45.8984375,0.003665191429188092,-0.03787364476827696,-0.04276056667386108,-1240,-1674,-1272,3902,307,100641
11:53:25.779,19335,990.234375,236.328125,-51.7578125,-0.010995574287564277,-0.03665191429188092,-0.04031710572106901,-1240,-1674,-1272,3902,307,100641
11:53:25.799,19336,993.1640625,230.46875,-49.8046875,0.01710422666954443,-0.04276056667386108,-0.01710422666954443,-1244,-1680,-1276,3902,307,100641
11:53:25.839,19337,982.421875,219.7265625,-40.0390625,-0.014660765716752368,-0.048869219055841226,-0.01832595714594046,-1244,-1680,-1276,3902,307,100641
11:53:25.849,19338,981.4453125,228.515625,-45.8984375,-0.06963863715457375,-0.0671951762017817,-0.03420845333908886,-1244,-1680,-1276,3902,307,100641
11:53:25.869,19339,984.375,222.65625,-54.6875,-0.07696902001294993,-0.07574728953655392,-0.058643062867009474,-1244,-1680,-1276,3902,307,100641
11:53:25.890,19340,990.234375,227.5390625,-52.734375,-0.07086036763096978,-0.08429940287132612,-0.04642575810304917,-1244,-1680,-1276,3902,307,100641
11:53:25.910,19341,997.0703125,235.3515625,-56.640625,-0.07452555906015788,-0.09162978572970232,-0.03298672286269283,-1242,-1680,-1270,3902,307,100641
11:53:25.930,19342,993.1640625,218.75,-43.9453125,-0.0830776723949301,-0.09162978572970232,-0.0317649923862968,-1242,-1680,-1270,3902,307,100641
11:53:25.940,19343,990.234375,218.75,-40.0390625,-0.1233947781159991,-0.10506882097005865,-0.04153883619746505,-1242,-1680,-1270,3902,307,100641
11:53:25.981,19344,982.421875,235.3515625,-45.8984375,-0.15393804002589986,-0.11362093430483088,-0.04398229715025711,-1242,-1680,-1270,3902,307,100641
11:53:26.2,19345,988.28125,227.5390625,-41.015625,-0.13194689145077132,-0.11606439525762292,-0.05742133239061345,-1242,-1680,-1270,3902,307,100641
11:53:26.22,19346,992.1875,224.609375,-39.0625,-0.10262536001726659,-0.10018189906447451,-0.03420845333908886,-1241,-1679,-1261,3902,307,100641
11:53:26.32,19347,987.3046875,218.75,-39.0625,-0.08552113334772216,-0.10140362954087055,-0.02809980095710871,-1241,-1679,-1261,3902,307,100641
11:53:26.53,19348,985.3515625,228.515625,-38.0859375,-0.06108652381980154,-0.09407324668249437,-0.023212879051524585,-1241,-1679,-1261,3902,307,100641
11:53:26.73,19349,998.046875,230.46875,-38.0859375,-0.03420845333908886,-0.08796459430051422,-0.0012217304763960308,-1241,-1679,-1261,3902,307,100641
11:53:26.94,19350,996.09375,208.984375,-38.0859375,-0.08552113334772216,-0.09773843811168245,-0.03420845333908886,-1248,-1677,-1272,3902,307,100641
11:53:26.124,19351,987.3046875,206.0546875,-39.0625,-0.1954768762233649,-0.07819075048934597,-0.05619960191421742,-1248,-1677,-1272,3902,307,100641
11:53:26.144,19352,990.234375,239.2578125,-42.96875,-0.2211332162276816,-0.08918632477691024,-0.03298672286269283,-1248,-1677,-1272,3832,307,100647
11:53:26.165,19353,982.421875,244.140625,-41.9921875,-0.12828170002158323,-0.07452555906015788,-0.003665191429188092,-1248,-1677,-1272,3832,307,100647
11:53:26.185,19354,989.2578125,243.1640625,-36.1328125,-0.006108652381980153,-0.07696902001294993,-0.01832595714594046,-1248,-1677,-1272,3832,307,100647
11:53:26.196,19355,988.28125,218.75,-38.0859375,-0.003665191429188092,-0.058643062867009474,-0.039095375244672985,-1245,-1677,-1275,3832,307,100647
11:53:26.216,19356,983.3984375,207.03125,-46.875,-0.052534410485029326,-0.052534410485029326,-0.05986479334340551,-1245,-1677,-1275,3832,307,100647
11:53:26.236,19357,981.4453125,225.5859375,-48.828125,-0.1356120828799594,-0.06230825429619757,-0.03054326190990077,-1245,-1677,-1275,3832,307,100647
11:53:26.257,19358,985.3515625,233.3984375,-41.9921875,-0.10873401239924674,-0.06475171524898964,0.007330382858376184,-1245,-1677,-1275,3832,307,100647
11:53:26.277,19359,985.3515625,241.2109375,-37.109375,-0.039095375244672985,-0.08796459430051422,0.0,-1245,-1677,-1275,3832,307,100647
11:53:26.287,19360,986.328125,235.3515625,-40.0390625,-0.04031710572106901,-0.06841690667817772,-0.04520402762665313,-1243,-1674,-1273,3832,307,100647
11:53:26.307,19361,988.28125,214.84375,-53.7109375,-0.07330382858376185,-0.0635299847725936,-0.05497787143782139,-1243,-1674,-1273,3832,307,100647
11:53:26.328,19362,990.234375,228.515625,-51.7578125,-0.12583823906879116,-0.06108652381980154,-0.048869219055841226,-1243,-1674,-1273,3832,307,100647
11:53:26.348,19363,993.1640625,239.2578125,-47.8515625,-0.10873401239924674,-0.0671951762017817,-0.024434609527920613,-1243,-1674,-1273,3832,307,100647
11:53:26.368,19364,989.2578125,233.3984375,-41.015625,-0.06597344572538566,-0.07208209810736582,-0.0317649923862968,-1241,-1676,-1273,3832,307,100647
11:53:26.399,19365,989.2578125,227.5390625,-47.8515625,-0.03054326190990077,-0.08796459430051422,-0.048869219055841226,-1241,-1676,-1273,3832,307,100647
11:53:26.419,19366,990.234375,212.890625,-55.6640625,-0.052534410485029326,-0.07941248096574201,-0.07086036763096978,-1241,-1676,-1273,3832,307,100647
11:53:26.440,19367,985.3515625,203.125,-49.8046875,-0.1038470904936626,-0.07208209810736582,-0.05742133239061345,-1241,-1676,-1273,3832,307,100647
11:53:26.450,19368,988.28125,213.8671875,-46.875,-0.1502728485967118,-0.07452555906015788,-0.03543018381548489,-1241,-1676,-1273,3832,307,100647
11:53:26.470,19369,986.328125,232.421875,-48.828125,-0.11606439525762292,-0.08918632477691024,-0.012217304763960306,-1243,-1673,-1272,3832,307,100647
11:53:26.491,19370,979.4921875,227.5390625,-47.8515625,-0.0671951762017817,-0.09040805525330627,-0.03298672286269283,-1243,-1673,-1272,3832,307,100647
11:53:26.511,19371,985.3515625,214.84375,-46.875,-0.052534410485029326,-0.07696902001294993,-0.0317649923862968,-1243,-1673,-1272,3832,307,100647
11:53:26.541,19372,986.328125,212.890625,-52.734375,-0.07574728953655392,-0.07330382858376185,-0.04398229715025711,-1243,-1673,-1272,3832,307,100647
11:53:26.562,19373,992.1875,219.7265625,-54.6875,-0.10018189906447451,-0.06841690667817772,-0.039095375244672985,-1243,-1673,-1272,3832,307,100647
11:53:26.582,19374,1000.0,223.6328125,-44.921875,-0.07696902001294993,-0.08185594191853407,-0.019547687622336492,-1247,-1678,-1255,3832,307,100647
11:53:26.602,19375,989.2578125,218.75,-39.0625,-0.09162978572970232,-0.0867428638241182,-0.03543018381548489,-1247,-1678,-1255,3832,307,100647
11:53:26.622,19376,987.3046875,215.8203125,-48.828125,-0.1038470904936626,-0.08918632477691024,-0.0317649923862968,-1247,-1678,-1255,3832,307,100647
11:53:26.633,19377,983.3984375,227.5390625,-50.78125,-0.09407324668249437,-0.08063421144213802,-0.029321531433504737,-1247,-1678,-1255,3832,307,100647
11:53:26.653,19378,982.421875,221.6796875,-49.8046875,-0.07819075048934597,-0.07696902001294993,-0.01710422666954443,-1247,-1678,-1255,3832,307,100647
11:53:26.673,19379,985.3515625,218.75,-44.921875,-0.08429940287132612,-0.08185594191853407,-0.009773843811168246,-1250,-1675,-1270,3832,307,100647
11:53:26.693,19380,980.46875,226.5625,-41.9921875,-0.10018189906447451,-0.08796459430051422,-0.010995574287564277,-1250,-1675,-1270,3832,307,100647
11:53:26.713,19381,988.28125,231.4453125,-47.8515625,-0.09040805525330627,-0.07819075048934597,-0.023212879051524585,-1250,-1675,-1270,3832,307,100647
11:53:26.723,19382,991.2109375,218.75,-47.8515625,-0.09162978572970232,-0.07452555906015788,-0.03787364476827696,-1250,-1675,-1270,3832,307,100647
11:53:26.744,19383,992.1875,229.4921875,-44.921875,-0.10140362954087055,-0.07819075048934597,-0.014660765716752368,-1242,-1674,-1279,3832,307,100647
11:53:26.764,19384,994.140625,230.46875,-46.875,-0.10506882097005865,-0.06963863715457375,-0.013439035240356337,-1242,-1674,-1279,3832,307,100647
11:53:26.784,19385,993.1640625,233.3984375,-39.0625,-0.08918632477691024,-0.06108652381980154,-0.024434609527920613,-1242,-1674,-1279,3832,307,100647
11:53:26.814,19386,985.3515625,225.5859375,-47.8515625,-0.07696902001294993,-0.05742133239061345,-0.026878070480712675,-1242,-1674,-1279,3832,307,100647
11:53:26.835,19387,985.3515625,231.4453125,-60.546875,-0.07086036763096978,-0.0635299847725936,-0.03420845333908886,-1242,-1674,-1279,3832,307,100647
11:53:26.855,19388,986.328125,230.46875,-54.6875,-0.05009094953223726,-0.04398229715025711,-0.03665191429188092,-1244,-1676,-1273,3832,307,100647
11:53:26.876,19389,988.28125,228.515625,-52.734375,-0.026878070480712675,-0.05375614096142535,-0.03543018381548489,-1244,-1676,-1273,3832,307,100647
11:53:26.886,19390,989.2578125,226.5625,-53.7109375,-0.06597344572538566,-0.07208209810736582,-0.03054326190990077,-1244,-1676,-1273,3832,307,100647
11:53:26.906,19391,985.3515625,228.515625,-55.6640625,-0.10018189906447451,-0.07574728953655392,-0.04276056667386108,-1244,-1676,-1273,3832,307,100647
11:53:26.926,19392,982.421875,235.3515625,-53.7109375,-0.0830776723949301,-0.07819075048934597,-0.06230825429619757,-1244,-1676,-1273,3832,307,100647
11:53:26.967,19393,985.3515625,217.7734375,-55.6640625,-0.07574728953655392,-0.06230825429619757,-0.0635299847725936,-1246,-1675,-1279,3832,307,100647
11:53:26.977,19394,989.2578125,222.65625,-55.6640625,-0.10140362954087055,-0.06597344572538566,-0.07086036763096978,-1246,-1675,-1279,3832,307,100647
11:53:26.997,19395,992.1875,219.7265625,-54.6875,-0.08063421144213802,-0.08796459430051422,-0.05497787143782139,-1246,-1675,-1279,3832,307,100647
11:53:27.18,19396,991.2109375,217.7734375,-50.78125,-0.08796459430051422,-0.07452555906015788,-0.04642575810304917,-1246,-1675,-1279,3832,307,100647
11:53:27.38,19397,982.421875,213.8671875,-48.828125,-0.08552113334772216,-0.0830776723949301,-0.019547687622336492,-1245,-1670,-1280,3832,307,100647
11:53:27.59,19398,987.3046875,218.75,-46.875,-0.10629055144645469,-0.08185594191853407,-0.025656340004316647,-1245,-1670,-1280,3832,307,100647
11:53:27.69,19399,990.234375,214.84375,-41.015625,-0.12217304763960309,-0.07941248096574201,-0.0317649923862968,-1245,-1670,-1280,3832,307,100647
11:53:27.90,19400,987.3046875,221.6796875,-42.96875,-0.11606439525762292,-0.07574728953655392,-0.05009094953223726,-1245,-1670,-1280,3832,307,100647
11:53:27.110,19401,982.421875,217.7734375,-49.8046875,-0.10995574287564278,-0.07086036763096978,-0.03665191429188092,-1245,-1670,-1280,3832,307,100647
11:53:27.130,19402,994.140625,228.515625,-48.828125,-0.1075122819228507,-0.06230825429619757,-0.03054326190990077,-1235,-1667,-1262,3902,307,100647
11:53:27.140,19403,992.1875,221.6796875,-44.921875,-0.07941248096574201,-0.06841690667817772,-0.009773843811168246,-1235,-1667,-1262,3902,307,100647
11:53:27.160,19404,988.28125,211.9140625,-45.8984375,-0.0989601685880785,-0.07086036763096978,-0.03665191429188092,-1235,-1667,-1262,3902,307,100647
11:53:27.181,19405,981.4453125,222.65625,-55.6640625,-0.11850785621041499,-0.0635299847725936,-0.03420845333908886,-1235,-1667,-1262,3902,307,100647
11:53:27.201,19406,984.375,218.75,-56.640625,-0.11850785621041499,-0.05375614096142535,-0.019547687622336492,-1235,-1667,-1262,3902,307,100647
11:53:27.232,19407,992.1875,230.46875,-56.640625,-0.11239920382843484,-0.07574728953655392,-0.01710422666954443,-1243,-1673,-1261,3902,307,100647
11:53:27.252,19408,991.2109375,225.5859375,-53.7109375,-0.10262536001726659,-0.06963863715457375,-0.009773843811168246,-1243,-1673,-1261,3902,307,100647
11:53:27.272,19409,991.2109375,222.65625,-53.7109375,-0.10506882097005865,-0.07941248096574201,-0.021991148575128554,-1243,-1673,-1261,3902,307,100647
11:53:27.292,19410,988.28125,222.65625,-50.78125,-0.12095131716320705,-0.07086036763096978,-0.019547687622336492,-1243,-1673,-1261,3902,307,100647
11:53:27.313,19411,991.2109375,226.5625,-55.6640625,-0.11972958668681102,-0.06963863715457375,-0.007330382858376184,-1249,-1674,-1276,3902,307,100647
11:53:27.323,19412,987.3046875,224.609375,-58.59375,-0.11362093430483088,-0.06230825429619757,-0.021991148575128554,-1249,-1674,-1276,3902,307,100647
11:53:27.343,19413,990.234375,231.4453125,-63.4765625,-0.09651670763528641,-0.07086036763096978,-0.0024434609527920616,-1249,-1674,-1276,3902,307,100647
11:53:27.384,19414,996.09375,232.421875,-63.4765625,-0.08918632477691024,-0.0867428638241182,0.008552113334772215,-1249,-1674,-1276,3902,307,100647
11:53:27.404,19415,992.1875,225.5859375,-59.5703125,-0.12583823906879116,-0.07941248096574201,-0.019547687622336492,-1249,-1674,-1276,3902,307,100647
11:53:27.415,19416,994.140625,236.328125,-62.5,-0.1343903524035634,-0.08552113334772216,-0.009773843811168246,-1244,-1674,-1266,3902,307,100647
11:53:27.435,19417,996.09375,238.28125,-67.3828125,-0.09407324668249437,-0.07574728953655392,-0.012217304763960306,-1244,-1674,-1266,3902,307,100647
11:53:27.456,19418,989.2578125,233.3984375,-62.5,-0.03787364476827696,-0.07574728953655392,-0.01832595714594046,-1244,-1674,-1266,3902,307,100647
11:53:27.476,19419,983.3984375,227.5390625,-66.40625,-0.03665191429188092,-0.08429940287132612,-0.023212879051524585,-1244,-1674,-1266,3902,307,100647
11:53:27.486,19420,987.3046875,233.3984375,-75.1953125,-0.04153883619746505,-0.08429940287132612,-0.026878070480712675,-1244,-1674,-1266,3902,307,100647
11:53:27.507,19421,1000.0,231.4453125,-77.1484375,-0.013439035240356337,-0.10629055144645469,-0.013439035240356337,-1244,-1678,-1274,3902,307,100647
11:53:27.527,19422,994.140625,226.5625,-65.4296875,-0.04031710572106901,-0.12828170002158323,-0.014660765716752368,-1244,-1678,-1274,3902,307,100647
11:53:27.547,19423,981.4453125,227.5390625,-63.4765625,-0.06230825429619757,-0.1343903524035634,-0.0317649923862968,-1244,-1678,-1274,3902,307,100647
11:53:27.568,19424,974.609375,222.65625,-60.546875,-0.052534410485029326,-0.12217304763960309,-0.05742133239061345,-1244,-1678,-1274,3902,307,100647
11:53:27.578,19425,994.140625,212.890625,-61.5234375,-0.03298672286269283,-0.11728612573401895,-0.05619960191421742,-1245,-1679,-1267,3902,307,100647
11:53:27.598,19426,1009.765625,219.7265625,-60.546875,-0.03787364476827696,-0.10873401239924674,-0.04642575810304917,-1245,-1679,-1267,3902,307,100647
11:53:27.619,19427,1004.8828125,218.75,-62.5,-0.0012217304763960308,-0.11972958668681102,-0.03543018381548489,-1245,-1679,-1267,3902,307,100647
11:53:27.649,19428,986.328125,212.890625,-59.5703125,0.021991148575128554,-0.12217304763960309,-0.023212879051524585,-1245,-1679,-1267,3902,307,100647
11:53:27.670,19429,981.4453125,205.078125,-62.5,0.008552113334772215,-0.1148426647812269,-0.03054326190990077,-1245,-1679,-1267,3902,307,100647
11:53:27.690,19430,977.5390625,210.9375,-58.59375,0.03787364476827696,-0.10873401239924674,-0.024434609527920613,-1247,-1676,-1249,3902,307,100647
11:53:27.710,19431,982.421875,207.03125,-60.546875,0.06963863715457375,-0.10140362954087055,-0.0024434609527920616,-1247,-1676,-1249,3902,307,100647
11:53:27.731,19432,985.3515625,198.2421875,-53.7109375,0.07452555906015788,-0.09285151620609834,-0.003665191429188092,-1247,-1676,-1249,3902,307,100647
11:53:27.741,19433,985.3515625,195.3125,-50.78125,0.0317649923862968,-0.12095131716320705,-0.01710422666954443,-1247,-1676,-1249,3902,307,100647
11:53:27.761,19434,987.3046875,198.2421875,-54.6875,-0.025656340004316647,-0.12583823906879116,-0.0158824961931484,-1247,-1676,-1249,3902,307,100647
11:53:27.802,19435,987.3046875,198.2421875,-50.78125,-0.06841690667817772,-0.12950343049797927,-0.023212879051524585,-1243,-1689,-1264,3902,307,100647
11:53:27.823,19436,977.5390625,192.3828125,-44.921875,-0.06841690667817772,-0.12095131716320705,-0.02809980095710871,-1243,-1689,-1264,3902,307,100647
11:53:27.833,19437,989.2578125,189.453125,-48.828125,-0.08429940287132612,-0.1270599695451872,-0.03665191429188092,-1243,-1689,-1264,3902,307,100647
11:53:27.854,19438,995.1171875,182.6171875,-42.96875,-0.1270599695451872,-0.11728612573401895,-0.03054326190990077,-1243,-1689,-1264,3902,307,100647
11:53:27.874,19439,1006.8359375,172.8515625,-47.8515625,-0.19669860669976097,-0.12583823906879116,-0.03420845333908886,-1243,-1689,-1264,3902,307,100647
11:53:27.895,19440,1007.8125,182.6171875,-45.8984375,-0.28099800957108706,-0.11850785621041499,-0.05375614096142535,-1244,-1678,-1262,3902,307,100647
11:53:27.905,19441,994.140625,182.6171875,-46.875,-0.2956587752878394,-0.1038470904936626,-0.06108652381980154,-1244,-1678,-1262,3902,307,100647
11:53:27.946,19442,988.28125,184.5703125,-58.59375,-0.2858849314766712,-0.1038470904936626,-0.052534410485029326,-1244,-1678,-1262,3902,307,100647
11:53:27.966,19443,990.234375,165.0390625,-61.5234375,-0.3066543495754037,-0.09407324668249437,-0.012217304763960306,-1244,-1678,-1262,3902,307,100647
11:53:27.986,19444,987.3046875,175.78125,-55.6640625,-0.3420845333908886,-0.11728612573401895,-0.012217304763960306,-1247,-1680,-1250,3902,307,100647
11:53:27.996,19445,981.4453125,167.96875,-57.6171875,-0.36651914291880927,-0.1270599695451872,0.003665191429188092,-1247,-1680,-1250,3902,307,100647
11:53:28.17,19446,986.328125,185.546875,-55.6640625,-0.40927970959267035,-0.1233947781159991,0.023212879051524585,-1247,-1680,-1250,3902,307,100647
11:53:28.37,19447,986.328125,197.265625,-56.640625,-0.4056145181634822,-0.12583823906879116,0.058643062867009474,-1247,-1680,-1250,3902,307,100647
11:53:28.58,19448,994.140625,207.03125,-58.59375,-0.41172317054546237,-0.1075122819228507,0.05009094953223726,-1247,-1680,-1250,3902,307,100647
11:53:28.78,19449,998.046875,198.2421875,-63.4765625,-0.42394047530942264,-0.09162978572970232,0.04031710572106901,-1242,-1677,-1251,3902,307,100647
11:53:28.88,19450,990.234375,206.0546875,-70.3125,-0.4166100924510465,-0.08552113334772216,0.03787364476827696,-1242,-1677,-1251,3902,307,100647
11:53:28.109,19451,997.0703125,214.84375,-73.2421875,-0.39828413530510604,-0.08552113334772216,0.04642575810304917,-1242,-1677,-1251,3902,307,100647
11:53:28.129,19452,991.2109375,224.609375,-82.03125,-0.3787364476827696,-0.09162978572970232,0.06597344572538566,-1242,-1677,-1251,3908,307,100641
11:53:28.149,19453,988.28125,225.5859375,-85.9375,-0.3469714552964728,-0.09651670763528641,0.07819075048934597,-1242,-1677,-1251,3908,307,100641
11:53:28.159,19454,985.3515625,233.3984375,-91.796875,-0.31642819338657197,-0.11362093430483088,0.09285151620609834,-1242,-1676,-1237,3908,307,100641
11:53:28.180,19455,984.375,240.234375,-93.75,-0.28099800957108706,-0.10506882097005865,0.07941248096574201,-1242,-1676,-1237,3908,307,100641
11:53:28.221,19456,981.4453125,241.2109375,-90.8203125,-0.26022859147235455,-0.1111774733520388,0.07696902001294993,-1242,-1676,-1237,3908,307,100641
11:53:28.241,19457,987.3046875,240.234375,-91.796875,-0.25656340004316647,-0.11606439525762292,0.06841690667817772,-1242,-1676,-1237,3908,307,100641
11:53:28.251,19458,996.09375,236.328125,-86.9140625,-0.2700024352835228,-0.12095131716320705,0.06597344572538566,-1247,-1682,-1263,3908,307,100641
11:53:28.271,19459,987.3046875,246.09375,-83.984375,-0.2748893571891069,-0.1233947781159991,0.05009094953223726,-1247,-1682,-1263,3908,307,100641
11:53:28.291,19460,986.328125,241.2109375,-83.0078125,-0.2541199390903744,-0.1343903524035634,0.039095375244672985,-1247,-1682,-1263,3908,307,100641
11:53:28.312,19461,987.3046875,244.140625,-79.1015625,-0.2541199390903744,-0.11850785621041499,0.0012217304763960308,-1247,-1682,-1263,3908,307,100641
11:53:28.332,19462,993.1640625,234.375,-76.171875,-0.2211332162276816,-0.11606439525762292,-0.007330382858376184,-1247,-1682,-1263,3908,307,100641
11:53:28.363,19463,986.328125,234.375,-76.171875,-0.20891591146372127,-0.12095131716320705,-0.013439035240356337,-1248,-1684,-1240,3908,307,100641
11:53:28.383,19464,981.4453125,235.3515625,-79.1015625,-0.1905899543177808,-0.1038470904936626,-0.004886921905584123,-1248,-1684,-1240,3908,307,100641
11:53:28.403,19465,985.3515625,234.375,-76.171875,-0.16249015336067207,-0.09040805525330627,-0.0024434609527920616,-1248,-1684,-1240,3908,307,100641
11:53:28.414,19466,988.28125,234.375,-73.2421875,-0.1710422666954443,-0.08918632477691024,-0.03298672286269283,-1248,-1684,-1240,3908,307,100641
11:53:28.434,19467,991.2109375,231.4453125,-75.1953125,-0.17470745812463243,-0.10018189906447451,-0.04642575810304917,-1248,-1684,-1240,3908,307,100641
11:53:28.454,19468,986.328125,226.5625,-74.21875,-0.18325957145940464,-0.08063421144213802,-0.06963863715457375,-1241,-1680,-1244,3908,307,100641
11:53:28.474,19469,979.4921875,226.5625,-68.359375,-0.20158552860534507,-0.0830776723949301,-0.09040805525330627,-1241,-1680,-1244,3908,307,100641
11:53:28.495,19470,965.8203125,237.3046875,-70.3125,-0.17837264955382048,-0.07208209810736582,-0.09651670763528641,-1241,-1680,-1244,3908,307,100641
11:53:28.505,19471,960.9375,237.3046875,-69.3359375,-0.10018189906447451,-0.04398229715025711,-0.07941248096574201,-1241,-1680,-1244,3908,307,100641
11:53:28.525,19472,966.796875,241.2109375,-68.359375,-0.06108652381980154,-0.006108652381980153,-0.0989601685880785,-1248,-1682,-1240,3908,307,100641
11:53:28.546,19473,981.4453125,229.4921875,-69.3359375,-0.05497787143782139,0.0,-0.11606439525762292,-1248,-1682,-1240,3908,307,100641
11:53:28.638,19474,994.140625,229.4921875,-69.3359375,-0.06841690667817772,0.008552113334772215,-0.12095131716320705,-1248,-1682,-1240,3908,307,100641
11:53:28.658,19475,995.1171875,237.3046875,-72.265625,-0.0476474885794452,0.025656340004316647,-0.10140362954087055,-1248,-1682,-1240,3908,307,100641
11:53:28.668,19476,992.1875,253.90625,-64.453125,0.04520402762665313,0.026878070480712675,-0.06108652381980154,-1248,-1682,-1240,3908,307,100641
11:53:28.689,19477,992.1875,255.859375,-73.2421875,0.11362093430483088,0.04153883619746505,-0.052534410485029326,-1247,-1684,-1247,3908,307,100641
11:53:28.710,19478,986.328125,260.7421875,-60.546875,0.16249015336067207,0.0476474885794452,-0.07208209810736582,-1247,-1684,-1247,3908,307,100641
11:53:28.730,19479,970.703125,249.0234375,-75.1953125,0.18570303241219668,0.07941248096574201,-0.10873401239924674,-1247,-1684,-1247,3908,307,100641
11:53:28.751,19480,956.0546875,252.9296875,-84.9609375,0.22846359908605776,0.07941248096574201,-0.10506882097005865,-1247,-1684,-1247,3908,307,100641
11:53:28.761,19481,983.3984375,238.28125,-90.8203125,0.2675589743307307,0.07696902001294993,-0.07208209810736582,-1247,-1684,-1247,3908,307,100641
11:53:28.781,19482,999.0234375,250.0,-87.890625,0.33475415053251245,0.05619960191421742,0.0,-1245,-1675,-1243,3908,307,100641
11:53:28.801,19483,1001.953125,248.046875,-88.8671875,0.4300491276914028,0.026878070480712675,0.02809980095710871,-1245,-1675,-1243,3908,307,100641
11:53:28.822,19484,998.046875,242.1875,-82.03125,0.4459316238845512,0.0012217304763960308,0.004886921905584123,-1245,-1675,-1243,3908,307,100641
11:53:28.842,19485,1013.671875,234.375,-71.2890625,0.4434881629317592,-0.025656340004316647,-0.014660765716752368,-1245,-1675,-1243,3908,307,100641
11:53:28.853,19486,1016.6015625,223.6328125,-67.3828125,0.4153883619746504,-0.04642575810304917,-0.029321531433504737,-1238,-1684,-1250,3908,307,100641
11:53:28.873,19487,1008.7890625,213.8671875,-64.453125,0.4288273972150068,-0.05009094953223726,-0.0635299847725936,-1238,-1684,-1250,3908,307,100641
11:53:28.893,19488,1009.765625,213.8671875,-55.6640625,0.41783182292744253,-0.05009094953223726,-0.08552113334772216,-1238,-1684,-1250,3908,307,100641
11:53:28.913,19489,1010.7421875,197.265625,-61.5234375,0.395840674352314,-0.06475171524898964,-0.07941248096574201,-1238,-1684,-1250,3908,307,100641
11:53:28.924,19490,1002.9296875,190.4296875,-56.640625,0.3286454981505323,-0.08429940287132612,-0.11362093430483088,-1238,-1684,-1250,3908,307,100641
11:53:28.944,19491,991.2109375,179.6875,-54.6875,0.2150245638457014,-0.09651670763528641,-0.15393804002589986,-1244,-1687,-1263,3908,307,100641
11:53:28.965,19492,987.3046875,188.4765625,-59.5703125,0.19669860669976097,-0.1038470904936626,-0.17837264955382048,-1244,-1687,-1263,3908,307,100641
11:53:28.985,19493,984.375,185.546875,-56.640625,0.2296853295624538,-0.0867428638241182,-0.1661553447898602,-1244,-1687,-1263,3908,307,100641
11:53:29.5,19494,989.2578125,174.8046875,-56.640625,0.2504547476611863,-0.08796459430051422,-0.15638150097869194,-1244,-1687,-1263,3908,307,100641
11:53:29.15,19495,998.046875,169.921875,-56.640625,0.20402898955813717,-0.0867428638241182,-0.16982053621904827,-1244,-1687,-1263,3908,307,100641
11:53:29.36,19496,1002.9296875,163.0859375,-59.5703125,0.1661553447898602,-0.0989601685880785,-0.1661553447898602,-1243,-1681,-1259,3908,307,100641
11:53:29.56,19497,996.09375,164.0625,-60.546875,0.1111774733520388,-0.0952949771588904,-0.16004669240788005,-1243,-1681,-1259,3908,307,100641
11:53:29.77,19498,996.09375,162.109375,-61.5234375,0.08185594191853407,-0.08185594191853407,-0.12217304763960309,-1243,-1681,-1259,3908,307,100641
11:53:29.87,19499,1002.9296875,164.0625,-58.59375,0.05375614096142535,-0.10995574287564278,-0.09407324668249437,-1243,-1681,-1259,3908,307,100641
11:53:29.108,19500,999.0234375,167.96875,-61.5234375,0.04642575810304917,-0.09285151620609834,-0.0867428638241182,-1240,-1683,-1253,3908,307,100641
11:53:29.128,19501,991.2109375,162.109375,-69.3359375,0.009773843811168246,-0.0989601685880785,-0.0830776723949301,-1240,-1683,-1253,3908,307,100641
11:53:29.148,19502,988.28125,157.2265625,-72.265625,-0.04642575810304917,-0.08796459430051422,-0.0989601685880785,-1240,-1683,-1253,3896,307,100639
11:53:29.169,19503,987.3046875,165.0390625,-75.1953125,-0.0671951762017817,-0.07696902001294993,-0.09040805525330627,-1240,-1683,-1253,3896,307,100639
11:53:29.179,19504,984.375,165.0390625,-70.3125,-0.07452555906015788,-0.07819075048934597,-0.08796459430051422,-1240,-1683,-1253,3896,307,100639
11:53:29.199,19505,988.28125,170.8984375,-73.2421875,-0.12583823906879116,-0.09773843811168245,-0.10995574287564278,-1238,-1680,-1265,3896,307,100639
11:53:29.219,19506,987.3046875,173.828125,-78.125,-0.14905111812031577,-0.10995574287564278,-0.10018189906447451,-1238,-1680,-1265,3896,307,100639
11:53:29.239,19507,984.375,170.8984375,-84.9609375,-0.22846359908605776,-0.1038470904936626,-0.1111774733520388,-1238,-1680,-1265,3896,307,100639
11:53:29.260,19508,980.46875,162.109375,-88.8671875,-0.3200933848157601,-0.11728612573401895,-0.13805554383275148,-1238,-1680,-1265,3896,307,100639
11:53:29.270,19509,992.1875,162.109375,-89.84375,-0.3909537524467298,-0.13805554383275148,-0.12461650859239513,-1238,-1680,-1265,3896,307,100639
11:53:29.290,19510,987.3046875,161.1328125,-80.078125,-0.4532620067429274,-0.16859880574265224,-0.09162978572970232,-1238,-1670,-1243,3896,307,100639
11:53:29.311,19511,978.515625,171.875,-78.125,-0.4825835381764321,-0.19914206765255302,-0.0671951762017817,-1238,-1670,-1243,3896,307,100639
11:53:29.351,19512,975.5859375,182.6171875,-76.171875,-0.4838052686528282,-0.2113593724165133,-0.04520402762665313,-1238,-1670,-1243,3896,307,100639
11:53:29.361,19513,980.46875,203.125,-70.3125,-0.4789183467472441,-0.1942551457469689,-0.04031710572106901,-1238,-1670,-1243,3896,307,100639
11:53:29.382,19514,980.46875,226.5625,-68.359375,-0.42516220578581876,-0.17837264955382048,-0.03054326190990077,-1242,-1673,-1242,3896,307,100639
11:53:29.402,19515,985.3515625,214.84375,-60.546875,-0.3738495257771854,-0.16493361431346415,0.003665191429188092,-1242,-1673,-1242,3896,307,100639
11:53:29.422,19516,984.375,221.6796875,-59.5703125,-0.38484510006474965,-0.16249015336067207,0.004886921905584123,-1242,-1673,-1242,3896,307,100639
11:53:29.432,19517,984.375,235.3515625,-58.59375,-0.37629298672997746,-0.16004669240788005,0.06597344572538566,-1242,-1673,-1242,3896,307,100639
11:53:29.453,19518,981.4453125,253.90625,-55.6640625,-0.3127630019573839,-0.1429424657383356,0.09651670763528641,-1242,-1673,-1242,3896,307,100639
11:53:29.473,19519,982.421875,254.8828125,-56.640625,-0.2651155133779387,-0.1270599695451872,0.11850785621041499,-1244,-1669,-1252,3896,307,100639
11:53:29.493,19520,983.3984375,263.671875,-59.5703125,-0.23212879051524585,-0.11606439525762292,0.11728612573401895,-1244,-1669,-1252,3896,307,100639
11:53:29.514,19521,982.421875,270.5078125,-62.5,-0.20158552860534507,-0.0867428638241182,0.1148426647812269,-1244,-1669,-1252,3896,307,100639
11:53:29.524,19522,973.6328125,280.2734375,-64.453125,-0.1734857276482364,-0.07696902001294993,0.10140362954087055,-1244,-1669,-1252,3896,307,100639
11:53:29.544,19523,968.75,276.3671875,-69.3359375,-0.17837264955382048,-0.06108652381980154,0.06230825429619757,-1244,-1669,-1252,3896,307,100639
11:53:29.565,19524,961.9140625,276.3671875,-74.21875,-0.21746802479849348,-0.058643062867009474,0.012217304763960306,-1237,-1671,-1231,3896,307,100639
11:53:29.585,19525,965.8203125,280.2734375,-73.2421875,-0.2651155133779387,-0.07208209810736582,-0.021991148575128554,-1237,-1671,-1231,3896,307,100639
11:53:29.616,19526,968.75,275.390625,-76.171875,-0.29810223624063154,-0.06597344572538566,-0.052534410485029326,-1237,-1671,-1231,3896,307,100639
11:53:29.636,19527,971.6796875,275.390625,-70.3125,-0.32498030672134415,-0.052534410485029326,-0.08552113334772216,-1237,-1671,-1231,3896,307,100639
11:53:29.657,19528,984.375,276.3671875,-73.2421875,-0.3384193419617005,-0.05619960191421742,-0.11239920382843484,-1237,-1671,-1231,3896,307,100639
11:53:29.677,19529,995.1171875,279.296875,-74.21875,-0.31520646291017596,-0.05009094953223726,-0.12583823906879116,-1240,-1676,-1253,3896,307,100639
11:53:29.697,19530,1000.0,275.390625,-76.171875,-0.2932153143350474,-0.03298672286269283,-0.12583823906879116,-1240,-1676,-1253,3896,307,100639
11:53:29.708,19531,992.1875,277.34375,-76.171875,-0.25656340004316647,-0.02809980095710871,-0.15882496193148402,-1240,-1676,-1253,3896,307,100639
11:53:29.728,19532,972.65625,273.4375,-81.0546875,-0.19303341527057283,0.010995574287564277,-0.17592918860102844,-1240,-1676,-1253,3896,307,100639
11:53:29.768,19533,987.3046875,268.5546875,-86.9140625,-0.09407324668249437,0.023212879051524585,-0.15271630954950383,-1244,-1674,-1245,3896,307,100639
11:53:29.779,19534,1004.8828125,264.6484375,-96.6796875,-0.023212879051524585,0.0317649923862968,-0.1148426647812269,-1244,-1674,-1245,3896,307,100639
11:53:29.799,19535,1006.8359375,249.0234375,-87.890625,-0.02809980095710871,-0.0024434609527920616,-0.09162978572970232,-1244,-1674,-1245,3896,307,100639
11:53:29.819,19536,994.140625,244.140625,-96.6796875,-0.10506882097005865,-0.024434609527920613,-0.09407324668249437,-1244,-1674,-1245,3896,307,100639
11:53:29.839,19537,987.3046875,238.28125,-97.65625,-0.1905899543177808,-0.04153883619746505,-0.12950343049797927,-1244,-1674,-1245,3896,307,100639
11:53:29.860,19538,967.7734375,237.3046875,-96.6796875,-0.21991148575128555,-0.04153883619746505,-0.1343903524035634,-1249,-1671,-1254,3896,307,100639
11:53:29.870,19539,949.21875,233.3984375,-92.7734375,-0.2138028333693054,-0.03665191429188092,-0.14538592669112765,-1249,-1671,-1254,3896,307,100639
11:53:29.890,19540,939.453125,229.4921875,-85.9375,-0.20036379812894903,-0.04153883619746505,-0.15760323145508798,-1249,-1671,-1254,3896,307,100639
11:53:29.910,19541,954.1015625,216.796875,-85.9375,-0.19914206765255302,-0.03298672286269283,-0.15271630954950383,-1249,-1671,-1254,3896,307,100639
11:53:29.931,19542,973.6328125,231.4453125,-79.1015625,-0.20402898955813717,-0.03298672286269283,-0.13805554383275148,-1249,-1671,-1254,3896,307,100639
11:53:29.951,19543,978.515625,236.328125,-88.8671875,-0.15638150097869194,-0.026878070480712675,-0.08429940287132612,-1242,-1661,-1246,3896,307,100639
11:53:29.961,19544,986.328125,248.046875,-89.84375,-0.07086036763096978,-0.020769418098732523,0.01832595714594046,-1242,-1661,-1246,3896,307,100639
11:53:29.982,19545,1010.7421875,263.671875,-87.890625,0.009773843811168246,-0.029321531433504737,0.051312680008633295,-1242,-1661,-1246,3896,307,100639
11:53:30.2,19546,1009.765625,266.6015625,-85.9375,0.03787364476827696,-0.03665191429188092,0.07208209810736582,-1242,-1661,-1246,3896,307,100639
11:53:30.32,19547,997.0703125,263.671875,-89.84375,0.0024434609527920616,-0.051312680008633295,0.048869219055841226,-1242,-1661,-1248,3896,307,100639
11:53:30.53,19548,988.28125,279.296875,-92.7734375,-0.04642575810304917,-0.07086036763096978,0.0476474885794452,-1242,-1661,-1248,3896,307,100639
11:53:30.73,19549,985.3515625,282.2265625,-89.84375,-0.03420845333908886,-0.0830776723949301,0.06475171524898964,-1242,-1661,-1248,3896,307,100639
11:53:30.93,19550,975.5859375,276.3671875,-88.8671875,-0.025656340004316647,-0.10629055144645469,0.05009094953223726,-1242,-1661,-1248,3896,307,100639
11:53:30.185,19551,969.7265625,276.3671875,-87.890625,-0.024434609527920613,-0.10873401239924674,0.03298672286269283,-1242,-1661,-1248,3896,307,100639
11:53:30.205,19552,978.515625,278.3203125,-83.984375,0.012217304763960306,-0.12095131716320705,0.03787364476827696,-1243,-1669,-1258,3896,307,100644
11:53:30.215,19553,983.3984375,280.2734375,-79.1015625,0.07452555906015788,-0.12828170002158323,0.04153883619746505,-1243,-1669,-1258,3896,307,100644
11:53:30.236,19554,977.5390625,277.34375,-82.03125,0.0867428638241182,-0.12217304763960309,0.05375614096142535,-1243,-1669,-1258,3896,307,100644
11:53:30.256,19555,979.4921875,281.25,-82.03125,0.09773843811168245,-0.12095131716320705,0.06841690667817772,-1243,-1669,-1258,3896,307,100644
11:53:30.276,19556,975.5859375,291.015625,-80.078125,0.1710422666954443,-0.12095131716320705,0.06108652381980154,-1243,-1669,-1258,3896,307,100644
11:53:30.296,19557,974.609375,282.2265625,-76.171875,0.1710422666954443,-0.11850785621041499,0.026878070480712675,-1246,-1667,-1243,3896,307,100644
11:53:30.306,19558,971.6796875,263.671875,-79.1015625,0.11850785621041499,-0.12461650859239513,-0.03543018381548489,-1246,-1667,-1243,3896,307,100644
11:53:30.327,19559,978.515625,271.484375,-76.171875,0.052534410485029326,-0.11239920382843484,-0.09773843811168245,-1246,-1667,-1243,3896,307,100644
11:53:30.348,19560,977.5390625,259.765625,-69.3359375,0.010995574287564277,-0.11239920382843484,-0.15638150097869194,-1246,-1667,-1243,3896,307,100644
11:53:30.368,19561,974.609375,242.1875,-66.40625,-0.008552113334772215,-0.1038470904936626,-0.19181168479417682,-1242,-1667,-1233,3896,307,100644
11:53:30.378,19562,986.328125,232.421875,-64.453125,-0.03543018381548489,-0.10629055144645469,-0.2028072590817411,-1242,-1667,-1233,3896,307,100644
11:53:30.399,19563,983.3984375,219.7265625,-64.453125,-0.04398229715025711,-0.09285151620609834,-0.20402898955813717,-1242,-1667,-1233,3896,307,100644
11:53:30.419,19564,979.4921875,218.75,-58.59375,-0.05009094953223726,-0.09162978572970232,-0.17470745812463243,-1242,-1667,-1233,3896,307,100644
11:53:30.440,19565,979.4921875,215.8203125,-58.59375,-0.04642575810304917,-0.07941248096574201,-0.1551597705022959,-1242,-1667,-1233,3896,307,100644
11:53:30.460,19566,979.4921875,215.8203125,-64.453125,-0.04642575810304917,-0.07086036763096978,-0.14905111812031577,-1245,-1667,-1236,3896,307,100644
11:53:30.470,19567,982.421875,208.984375,-62.5,-0.03054326190990077,-0.05986479334340551,-0.13316862192716736,-1245,-1667,-1236,3896,307,100644
11:53:30.491,19568,985.3515625,209.9609375,-67.3828125,-0.05619960191421742,-0.05009094953223726,-0.11362093430483088,-1245,-1667,-1236,3896,307,100644
11:53:30.511,19569,984.375,201.171875,-73.2421875,-0.1038470904936626,-0.04520402762665313,-0.12217304763960309,-1245,-1667,-1236,3896,307,100644
11:53:30.531,19570,980.46875,210.9375,-72.265625,-0.1233947781159991,-0.052534410485029326,-0.10506882097005865,-1245,-1667,-1236,3896,307,100644
11:53:30.552,19571,976.5625,208.0078125,-78.125,-0.14172073526193957,-0.05009094953223726,-0.09773843811168245,-1245,-1659,-1234,3896,307,100644
11:53:30.562,19572,978.515625,208.984375,-80.078125,-0.16126842288427604,-0.04276056667386108,-0.08918632477691024,-1245,-1659,-1234,3896,307,100644
11:53:30.582,19573,988.28125,219.7265625,-88.8671875,-0.17592918860102844,-0.05619960191421742,-0.07330382858376185,-1245,-1659,-1234,3896,307,100644
11:53:30.602,19574,995.1171875,230.46875,-92.7734375,-0.17592918860102844,-0.05619960191421742,-0.06230825429619757,-1245,-1659,-1234,3896,307,100644
11:53:30.623,19575,993.1640625,237.3046875,-94.7265625,-0.15882496193148402,-0.08185594191853407,-0.04031710572106901,-1242,-1659,-1238,3896,307,100644
11:53:30.633,19576,981.4453125,246.09375,-94.7265625,-0.1954768762233649,-0.1038470904936626,-0.03787364476827696,-1242,-1659,-1238,3896,307,100644
11:53:30.653,19577,987.3046875,249.0234375,-93.75,-0.22602013813326569,-0.11728612573401895,-0.04398229715025711,-1242,-1659,-1238,3896,307,100644
11:53:30.673,19578,992.1875,260.7421875,-103.515625,-0.2419026343264141,-0.12950343049797927,-0.03665191429188092,-1242,-1659,-1238,3896,307,100644
11:53:30.694,19579,987.3046875,257.8125,-98.6328125,-0.23945917337362205,-0.1343903524035634,-0.039095375244672985,-1242,-1659,-1238,3896,307,100644
11:53:30.714,19580,979.4921875,263.671875,-93.75,-0.2419026343264141,-0.16493361431346415,-0.021991148575128554,-1249,-1658,-1234,3896,307,100644
11:53:30.724,19581,970.703125,254.8828125,-92.7734375,-0.2663372438543347,-0.1734857276482364,-0.05497787143782139,-1249,-1658,-1234,3896,307,100644
11:53:30.744,19582,955.078125,252.9296875,-86.9140625,-0.2944370448114434,-0.18325957145940464,-0.07330382858376185,-1249,-1658,-1234,3896,307,100644
11:53:30.765,19583,954.1015625,250.9765625,-86.9140625,-0.3274237676741363,-0.18814649336498873,-0.09651670763528641,-1249,-1658,-1234,3896,307,100644
11:53:30.785,19584,962.890625,258.7890625,-82.03125,-0.34941491624926485,-0.18814649336498873,-0.09773843811168245,-1249,-1658,-1234,3896,307,100644
11:53:30.805,19585,970.703125,252.9296875,-81.0546875,-0.37140606482439337,-0.2028072590817411,-0.10140362954087055,-1251,-1654,-1249,3896,307,100644
11:53:30.815,19586,973.6328125,252.9296875,-71.2890625,-0.40194932673429407,-0.2113593724165133,-0.10873401239924674,-1251,-1654,-1249,3896,307,100644
11:53:30.836,19587,972.65625,250.0,-75.1953125,-0.4422664324553632,-0.20525072003453318,-0.11606439525762292,-1251,-1654,-1249,3896,307,100644
11:53:30.856,19588,961.9140625,254.8828125,-77.1484375,-0.5082398781807488,-0.20402898955813717,-0.12583823906879116,-1251,-1654,-1249,3896,307,100644
11:53:30.876,19589,954.1015625,256.8359375,-71.2890625,-0.5216789134211052,-0.20525072003453318,-0.1233947781159991,-1251,-1654,-1249,3896,307,100644
11:53:30.897,19590,965.8203125,268.5546875,-74.21875,-0.5119050696099369,-0.18814649336498873,-0.10262536001726659,-1247,-1652,-1237,3896,307,100644
11:53:30.907,19591,969.7265625,268.5546875,-66.40625,-0.47403142484165994,-0.18081611050661253,-0.08429940287132612,-1247,-1652,-1237,3896,307,100644
11:53:30.927,19592,971.6796875,267.578125,-62.5,-0.47280969436526393,-0.15882496193148402,-0.08796459430051422,-1247,-1652,-1237,3896,307,100644
11:53:30.948,19593,977.5390625,271.484375,-66.40625,-0.4825835381764321,-0.14538592669112765,-0.0635299847725936,-1247,-1652,-1237,3896,307,100644
11:53:30.968,19594,981.4453125,277.34375,-68.359375,-0.44959681531373935,-0.1270599695451872,-0.04276056667386108,-1241,-1637,-1236,3896,307,100644
11:53:30.978,19595,985.3515625,281.25,-65.4296875,-0.4202752838802346,-0.1038470904936626,-0.01832595714594046,-1241,-1637,-1236,3896,307,100644
11:53:31.19,19596,991.2109375,283.203125,-68.359375,-0.40072759625789806,-0.08796459430051422,-0.0012217304763960308,-1241,-1637,-1236,3896,307,100644
11:53:31.39,19597,981.4453125,281.25,-76.171875,-0.3652974124424132,-0.0635299847725936,0.010995574287564277,-1241,-1637,-1236,3896,307,100644
11:53:31.60,19598,974.609375,290.0390625,-82.03125,-0.33597588100890846,-0.05497787143782139,0.04520402762665313,-1241,-1637,-1236,3896,307,100644
11:53:31.70,19599,964.84375,287.109375,-83.0078125,-0.3042108886226117,-0.03420845333908886,0.06475171524898964,-1249,-1640,-1234,3896,307,100644
11:53:31.91,19600,961.9140625,304.6875,-79.1015625,-0.2700024352835228,-0.04276056667386108,0.09285151620609834,-1249,-1640,-1234,3896,307,100644
11:53:31.111,19601,954.1015625,299.8046875,-83.0078125,-0.23701571242082997,-0.03298672286269283,0.09407324668249437,-1249,-1640,-1234,3896,307,100644
11:53:31.132,19602,948.2421875,305.6640625,-91.796875,-0.24068090385001806,-0.024434609527920613,0.09285151620609834,-1249,-1640,-1234,3908,307,100646
11:53:31.162,19603,944.3359375,301.7578125,-91.796875,-0.2858849314766712,-0.01710422666954443,0.07574728953655392,-1249,-1640,-1234,3908,307,100646
11:53:31.182,19604,943.359375,313.4765625,-92.7734375,-0.31642819338657197,-0.023212879051524585,0.05497787143782139,-1249,-1639,-1231,3908,307,100646
11:53:31.203,19605,947.265625,328.125,-89.84375,-0.2467895562319982,-0.007330382858376184,0.0635299847725936,-1249,-1639,-1231,3908,307,100646
11:53:31.224,19606,962.890625,335.9375,-95.703125,-0.16859880574265224,0.0024434609527920616,0.05986479334340551,-1249,-1639,-1231,3908,307,100646
11:53:31.295,19607,974.609375,335.9375,-92.7734375,-0.07452555906015788,0.012217304763960306,0.0671951762017817,-1249,-1639,-1231,3908,307,100646
11:53:31.315,19608,985.3515625,337.890625,-99.609375,-0.04153883619746505,0.03054326190990077,0.052534410485029326,-1244,-1641,-1231,3908,307,100646
11:53:31.325,19609,980.46875,340.8203125,-94.7265625,-0.01832595714594046,0.010995574287564277,0.039095375244672985,-1244,-1641,-1231,3908,307,100646
11:53:31.346,19610,974.609375,352.5390625,-94.7265625,0.02809980095710871,0.006108652381980153,0.0317649923862968,-1244,-1641,-1231,3908,307,100646
11:53:31.366,19611,965.8203125,351.5625,-99.609375,0.06963863715457375,0.0024434609527920616,0.020769418098732523,-1244,-1641,-1231,3908,307,100646
11:53:31.386,19612,969.7265625,339.84375,-96.6796875,0.09651670763528641,-0.0012217304763960308,-0.0158824961931484,-1244,-1641,-1231,3908,307,100646
11:53:31.396,19613,974.609375,349.609375,-85.9375,0.07696902001294993,-0.006108652381980153,-0.05375614096142535,-1244,-1646,-1225,3908,307,100646
11:53:31.417,19614,962.890625,336.9140625,-87.890625,0.08552113334772216,0.0,-0.08429940287132612,-1244,-1646,-1225,3908,307,100646
11:53:31.437,19615,956.0546875,333.0078125,-90.8203125,0.1343903524035634,0.0012217304763960308,-0.07941248096574201,-1244,-1646,-1225,3908,307,100646
11:53:31.457,19616,963.8671875,328.125,-83.984375,0.1392772743091475,0.0012217304763960308,-0.1038470904936626,-1244,-1646,-1225,3908,307,100646
11:53:31.478,19617,965.8203125,322.265625,-74.21875,0.12583823906879116,-0.01710422666954443,-0.13316862192716736,-1244,-1646,-1225,3908,307,100646
11:53:31.488,19618,955.078125,319.3359375,-75.1953125,0.12217304763960309,-0.020769418098732523,-0.16737707526625623,-1249,-1647,-1226,3908,307,100646
11:53:31.509,19619,958.984375,309.5703125,-83.0078125,0.11606439525762292,-0.01710422666954443,-0.17715091907742447,-1249,-1647,-1226,3908,307,100646
11:53:31.529,19620,975.5859375,310.546875,-79.1015625,0.1270599695451872,-0.012217304763960306,-0.16371188383706814,-1249,-1647,-1226,3908,307,100646
11:53:31.549,19621,986.328125,308.59375,-79.1015625,0.15760323145508798,-0.039095375244672985,-0.1307251609743753,-1249,-1647,-1226,3908,307,100646
11:53:31.570,19622,984.375,300.78125,-72.265625,0.17470745812463243,-0.06108652381980154,-0.10140362954087055,-1254,-1640,-1232,3908,307,100646
11:53:31.580,19623,985.3515625,294.921875,-67.3828125,0.1820378409830086,-0.07452555906015788,-0.10018189906447451,-1254,-1640,-1232,3908,307,100646
11:53:31.600,19624,981.4453125,291.9921875,-69.3359375,0.16371188383706814,-0.09407324668249437,-0.0830776723949301,-1254,-1640,-1232,3908,307,100646
11:53:31.620,19625,977.5390625,298.828125,-60.546875,0.17470745812463243,-0.07941248096574201,-0.0830776723949301,-1254,-1640,-1232,3908,307,100646
11:53:31.640,19626,971.6796875,297.8515625,-63.4765625,0.2528982086139784,-0.06230825429619757,-0.09040805525330627,-1254,-1640,-1232,3908,307,100646
11:53:31.661,19627,970.703125,283.203125,-63.4765625,0.29932396671702755,-0.06597344572538566,-0.09040805525330627,-1244,-1641,-1226,3908,307,100646
11:53:31.671,19628,972.65625,270.5078125,-67.3828125,0.2932153143350474,-0.09040805525330627,-0.06475171524898964,-1244,-1641,-1226,3908,307,100646
11:53:31.691,19629,974.609375,266.6015625,-60.546875,0.20036379812894903,-0.1038470904936626,-0.07941248096574201,-1244,-1641,-1226,3908,307,100646
11:53:31.712,19630,969.7265625,272.4609375,-55.6640625,0.1466076571675237,-0.09773843811168245,-0.10262536001726659,-1244,-1641,-1226,3908,307,100646
11:53:31.732,19631,973.6328125,275.390625,-55.6640625,0.10995574287564278,-0.07452555906015788,-0.12461650859239513,-1244,-1641,-1226,3908,307,100646
11:53:31.752,19632,972.65625,273.4375,-56.640625,0.12950343049797927,-0.06597344572538566,-0.12828170002158323,-1245,-1642,-1232,3908,307,100646
11:53:31.763,19633,968.75,269.53125,-57.6171875,0.15882496193148402,-0.04031710572106901,-0.12950343049797927,-1245,-1642,-1232,3908,307,100646
11:53:31.783,19634,976.5625,259.765625,-58.59375,0.16982053621904827,-0.03420845333908886,-0.12828170002158323,-1245,-1642,-1232,3908,307,100646
11:53:31.803,19635,976.5625,251.953125,-62.5,0.14905111812031577,-0.04153883619746505,-0.11606439525762292,-1245,-1642,-1232,3908,307,100646
11:53:31.824,19636,974.609375,250.9765625,-67.3828125,0.08185594191853407,-0.02809980095710871,-0.11972958668681102,-1247,-1640,-1230,3908,307,100646
11:53:31.834,19637,977.5390625,253.90625,-73.2421875,0.07696902001294993,-0.03054326190990077,-0.09285151620609834,-1247,-1640,-1230,3908,307,100646
11:53:31.854,19638,975.5859375,261.71875,-76.171875,0.08796459430051422,-0.023212879051524585,-0.0671951762017817,-1247,-1640,-1230,3908,307,100646
11:53:31.875,19639,977.5390625,254.8828125,-80.078125,0.07941248096574201,-0.023212879051524585,-0.0635299847725936,-1247,-1640,-1230,3908,307,100646
11:53:31.895,19640,978.515625,251.953125,-79.1015625,0.04398229715025711,-0.025656340004316647,-0.05619960191421742,-1247,-1640,-1230,3908,307,100646
11:53:31.915,19641,975.5859375,254.8828125,-88.8671875,-0.0012217304763960308,-0.039095375244672985,-0.06230825429619757,-1247,-1641,-1238,3908,307,100646
11:53:31.925,19642,968.75,255.859375,-87.890625,-0.03787364476827696,-0.03665191429188092,-0.05009094953223726,-1247,-1641,-1238,3908,307,100646
11:53:31.946,19643,969.7265625,262.6953125,-88.8671875,-0.04642575810304917,-0.03665191429188092,-0.03543018381548489,-1247,-1641,-1238,3908,307,100646
11:53:31.966,19644,969.7265625,261.71875,-87.890625,-0.029321531433504737,-0.04642575810304917,-0.024434609527920613,-1247,-1641,-1238,3908,307,100646
11:53:32.7,19645,975.5859375,258.7890625,-92.7734375,-0.04520402762665313,-0.05009094953223726,-0.014660765716752368,-1247,-1641,-1238,3908,307,100646
11:53:32.17,19646,975.5859375,255.859375,-93.75,-0.08918632477691024,-0.04031710572106901,-0.0317649923862968,-1244,-1634,-1243,3908,307,100646
11:53:32.37,19647,974.609375,264.6484375,-93.75,-0.1356120828799594,-0.06841690667817772,-0.026878070480712675,-1244,-1634,-1243,3908,307,100646
11:53:32.57,19648,971.6796875,259.765625,-99.609375,-0.17592918860102844,-0.08552113334772216,-0.03787364476827696,-1244,-1634,-1243,3908,307,100646
11:53:32.78,19649,977.5390625,265.625,-93.75,-0.1905899543177808,-0.10140362954087055,-0.023212879051524585,-1244,-1634,-1243,3908,307,100646
11:53:32.98,19650,972.65625,265.625,-93.75,-0.2076941809873252,-0.0989601685880785,-0.03054326190990077,-1250,-1643,-1246,3908,307,100646
11:53:32.109,19651,972.65625,277.34375,-93.75,-0.21991148575128555,-0.1038470904936626,-0.04642575810304917,-1250,-1643,-1246,3908,307,100646
11:53:32.129,19652,970.703125,265.625,-102.5390625,-0.24068090385001806,-0.12461650859239513,-0.05619960191421742,-1250,-1643,-1246,3902,307,100641
11:53:32.149,19653,946.2890625,265.625,-96.6796875,-0.2748893571891069,-0.15638150097869194,-0.05619960191421742,-1250,-1643,-1246,3902,307,100641
11:53:32.170,19654,936.5234375,261.71875,-96.6796875,-0.31154127148098787,-0.1710422666954443,-0.0317649923862968,-1250,-1643,-1246,3902,307,100641
11:53:32.180,19655,946.2890625,267.578125,-88.8671875,-0.36163222101322506,-0.20036379812894903,-0.026878070480712675,-1254,-1639,-1230,3902,307,100641
11:53:32.201,19656,973.6328125,273.4375,-77.1484375,-0.39461894387591795,-0.20158552860534507,-0.03054326190990077,-1254,-1639,-1230,3902,307,100641
11:53:32.221,19657,998.046875,292.96875,-75.1953125,-0.40805797911627434,-0.19669860669976097,-0.007330382858376184,-1254,-1639,-1230,3902,307,100641
11:53:32.241,19658,1010.7421875,308.59375,-65.4296875,-0.34941491624926485,-0.1820378409830086,0.014660765716752368,-1254,-1639,-1230,3902,307,100641
11:53:32.272,19659,998.046875,310.546875,-69.3359375,-0.2687807048071268,-0.1710422666954443,0.04276056667386108,-1254,-1639,-1230,3902,307,100641
11:53:32.292,19660,976.5625,306.640625,-78.125,-0.2235766771804736,-0.15149457907310784,0.048869219055841226,-1243,-1639,-1227,3902,307,100641
11:53:32.312,19661,958.0078125,309.5703125,-79.1015625,-0.20402898955813717,-0.10995574287564278,0.024434609527920613,-1243,-1639,-1227,3902,307,100641
11:53:32.333,19662,951.171875,315.4296875,-84.9609375,-0.16859880574265224,-0.1148426647812269,0.0024434609527920616,-1243,-1639,-1227,3902,307,100641
11:53:32.343,19663,949.21875,308.59375,-83.984375,-0.14905111812031577,-0.11728612573401895,-0.006108652381980153,-1243,-1639,-1227,3902,307,100641
11:53:32.363,19664,951.171875,304.6875,-72.265625,-0.14905111812031577,-0.11606439525762292,-0.026878070480712675,-1243,-1639,-1227,3902,307,100641
11:53:32.384,19665,946.2890625,284.1796875,-64.453125,-0.12950343049797927,-0.10995574287564278,-0.008552113334772215,-1246,-1636,-1225,3902,307,100641
11:53:32.425,19666,959.9609375,292.96875,-61.5234375,-0.12583823906879116,-0.0671951762017817,0.03298672286269283,-1246,-1636,-1225,3902,307,100641
11:53:32.435,19667,964.84375,307.6171875,-63.4765625,-0.09040805525330627,-0.05497787143782139,0.0989601685880785,-1246,-1636,-1225,3902,307,100641
11:53:32.455,19668,974.609375,313.4765625,-77.1484375,-0.04398229715025711,-0.03298672286269283,0.11728612573401895,-1246,-1636,-1225,3902,307,100641
11:53:32.476,19669,986.328125,319.3359375,-89.84375,-0.04520402762665313,-0.04153883619746505,0.07819075048934597,-1249,-1643,-1225,3902,307,100641
11:53:32.496,19670,985.3515625,312.5,-88.8671875,-0.0952949771588904,-0.023212879051524585,0.01832595714594046,-1249,-1643,-1225,3902,307,100641
11:53:32.507,19671,956.0546875,302.734375,-94.7265625,-0.12583823906879116,-0.029321531433504737,-0.029321531433504737,-1249,-1643,-1225,3902,307,100641
11:53:32.527,19672,936.5234375,298.828125,-99.609375,-0.18081611050661253,-0.026878070480712675,-0.08796459430051422,-1249,-1643,-1225,3902,307,100641
11:53:32.568,19673,934.5703125,294.921875,-104.4921875,-0.19303341527057283,-0.01710422666954443,-0.09285151620609834,-1249,-1643,-1225,3902,307,100641
11:53:32.589,19674,958.984375,304.6875,-109.375,-0.1820378409830086,-0.029321531433504737,-0.08185594191853407,-1249,-1643,-1220,3902,307,100641
11:53:32.599,19675,973.6328125,296.875,-101.5625,-0.18081611050661253,-0.07452555906015788,-0.058643062867009474,-1249,-1643,-1220,3902,307,100641
11:53:32.619,19676,969.7265625,291.015625,-100.5859375,-0.18570303241219668,-0.09407324668249437,-0.04642575810304917,-1249,-1643,-1220,3902,307,100641
11:53:32.640,19677,962.890625,289.0625,-91.796875,-0.2528982086139784,-0.11239920382843484,-0.07086036763096978,-1249,-1643,-1220,3902,307,100641
11:53:32.660,19678,959.9609375,288.0859375,-80.078125,-0.3066543495754037,-0.09407324668249437,-0.0671951762017817,-1249,-1643,-1220,3902,307,100641
11:53:32.680,19679,957.03125,302.734375,-77.1484375,-0.3274237676741363,-0.07330382858376185,-0.08063421144213802,-1243,-1640,-1223,3902,307,100641
11:53:32.690,19680,960.9375,313.4765625,-78.125,-0.2871066619530672,-0.05375614096142535,-0.0867428638241182,-1243,-1640,-1223,3902,307,100641
11:53:32.710,19681,972.65625,304.6875,-77.1484375,-0.1893682238413848,-0.026878070480712675,-0.06841690667817772,-1243,-1640,-1223,3902,307,100641
11:53:32.731,19682,959.9609375,294.921875,-85.9375,-0.1478293876439197,-0.008552113334772215,-0.04642575810304917,-1243,-1640,-1223,3902,307,100641
11:53:32.751,19683,955.078125,293.9453125,-99.609375,-0.12461650859239513,-0.004886921905584123,-0.010995574287564277,-1241,-1643,-1228,3902,307,100641
11:53:32.761,19684,957.03125,301.7578125,-95.703125,-0.09285151620609834,-0.01832595714594046,0.03787364476827696,-1241,-1643,-1228,3902,307,100641
11:53:32.782,19685,958.0078125,306.640625,-89.84375,-0.05619960191421742,-0.025656340004316647,0.051312680008633295,-1241,-1643,-1228,3902,307,100641
11:53:32.802,19686,948.2421875,315.4296875,-89.84375,-0.03054326190990077,-0.03298672286269283,0.05742133239061345,-1241,-1643,-1228,3902,307,100641
11:53:32.843,19687,940.4296875,323.2421875,-79.1015625,0.021991148575128554,-0.039095375244672985,0.06108652381980154,-1241,-1643,-1228,3902,307,100641
11:53:32.853,19688,949.21875,325.1953125,-80.078125,0.05375614096142535,-0.03787364476827696,0.0635299847725936,-1242,-1639,-1230,3902,307,100641
11:53:32.874,19689,949.21875,313.4765625,-81.0546875,0.04276056667386108,-0.010995574287564277,0.06963863715457375,-1242,-1639,-1230,3902,307,100641
11:53:32.894,19690,969.7265625,337.890625,-83.0078125,0.010995574287564277,-0.0158824961931484,0.0830776723949301,-1242,-1639,-1230,3902,307,100641
11:53:32.914,19691,978.515625,338.8671875,-81.0546875,0.04031710572106901,-0.026878070480712675,0.09285151620609834,-1242,-1639,-1230,3902,307,100641
11:53:32.925,19692,984.375,338.8671875,-83.0078125,0.058643062867009474,-0.029321531433504737,0.09285151620609834,-1242,-1639,-1230,3902,307,100641
11:53:32.945,19693,989.2578125,342.7734375,-79.1015625,0.10506882097005865,-0.023212879051524585,0.06108652381980154,-1248,-1648,-1246,3902,307,100641
11:53:32.986,19694,993.1640625,344.7265625,-81.0546875,0.17226399717184035,-0.009773843811168246,0.05742133239061345,-1248,-1648,-1246,3902,307,100641
11:53:33.6,19695,991.2109375,353.515625,-90.8203125,0.2577851305195625,0.003665191429188092,0.05497787143782139,-1248,-1648,-1246,3902,307,100641
11:53:33.16,19696,978.515625,327.1484375,-93.75,0.3078760800517997,0.0,0.03298672286269283,-1248,-1648,-1246,3902,307,100641
11:53:33.37,19697,957.03125,328.125,-93.75,0.32375857624494814,0.003665191429188092,-0.004886921905584123,-1246,-1653,-1222,3902,307,100641
11:53:33.57,19698,945.3125,316.40625,-96.6796875,0.31154127148098787,-0.01710422666954443,-0.03298672286269283,-1246,-1653,-1222,3902,307,100641
11:53:33.78,19699,950.1953125,303.7109375,-95.703125,0.2858849314766712,-0.04153883619746505,-0.0635299847725936,-1246,-1653,-1222,3902,307,100641
11:53:33.98,19700,960.9375,299.8046875,-86.9140625,0.2150245638457014,-0.04398229715025711,-0.11972958668681102,-1246,-1653,-1222,3902,307,100641
11:53:33.108,19701,969.7265625,289.0625,-85.9375,0.19303341527057283,-0.06841690667817772,-0.16493361431346415,-1246,-1653,-1222,3902,307,100641
11:53:33.129,19702,977.5390625,275.390625,-79.1015625,0.14538592669112765,-0.08552113334772216,-0.20158552860534507,-1245,-1658,-1231,3918,307,100650
11:53:33.149,19703,985.3515625,266.6015625,-80.078125,0.08429940287132612,-0.09773843811168245,-0.22479840765686968,-1245,-1658,-1231,3918,307,100650
11:53:33.169,19704,990.234375,262.6953125,-75.1953125,0.039095375244672985,-0.10262536001726659,-0.2235766771804736,-1245,-1658,-1231,3918,307,100650
11:53:33.179,19705,987.3046875,255.859375,-66.40625,0.026878070480712675,-0.10262536001726659,-0.23335052099164189,-1245,-1658,-1231,3918,307,100650
11:53:33.200,19706,985.3515625,246.09375,-72.265625,0.026878070480712675,-0.07941248096574201,-0.23579398194443396,-1245,-1658,-1231,3918,307,100650
11:53:33.220,19707,982.421875,246.09375,-74.21875,0.029321531433504737,-0.06963863715457375,-0.22602013813326569,-1245,-1648,-1228,3918,307,100650
11:53:33.261,19708,980.46875,238.28125,-74.21875,0.048869219055841226,-0.06963863715457375,-0.19181168479417682,-1245,-1648,-1228,3918,307,100650
11:53:33.271,19709,985.3515625,232.421875,-86.9140625,0.04153883619746505,-0.0635299847725936,-0.16004669240788005,-1245,-1648,-1228,3918,307,100650
11:53:33.291,19710,999.0234375,233.3984375,-87.890625,0.029321531433504737,-0.05986479334340551,-0.13194689145077132,-1245,-1648,-1228,3918,307,100650
11:53:33.312,19711,988.28125,236.328125,-100.5859375,0.006108652381980153,-0.07208209810736582,-0.1075122819228507,-1246,-1642,-1241,3918,307,100650
11:53:33.332,19712,975.5859375,237.3046875,-108.3984375,-0.004886921905584123,-0.07330382858376185,-0.09651670763528641,-1246,-1642,-1241,3918,307,100650
11:53:33.353,19713,973.6328125,238.28125,-109.375,-0.02809980095710871,-0.08552113334772216,-0.07941248096574201,-1246,-1642,-1241,3918,307,100650
11:53:33.363,19714,972.65625,250.0,-112.3046875,-0.051312680008633295,-0.08063421144213802,-0.0830776723949301,-1246,-1642,-1241,3918,307,100650
11:53:33.403,19715,971.6796875,246.09375,-125.0,-0.039095375244672985,-0.08918632477691024,-0.04520402762665313,-1246,-1642,-1241,3918,307,100650
11:53:33.424,19716,964.84375,249.0234375,-122.0703125,-0.008552113334772215,-0.1111774733520388,-0.007330382858376184,-1241,-1634,-1232,3918,307,100650
11:53:33.434,19717,972.65625,253.90625,-118.1640625,-0.009773843811168246,-0.13805554383275148,0.04520402762665313,-1241,-1634,-1232,3918,307,100650
11:53:33.455,19718,965.8203125,241.2109375,-117.1875,-0.048869219055841226,-0.15882496193148402,0.06597344572538566,-1241,-1634,-1232,3918,307,100650
11:53:33.475,19719,966.796875,250.9765625,-123.046875,-0.09773843811168245,-0.16982053621904827,0.0671951762017817,-1241,-1634,-1232,3918,307,100650
11:53:33.495,19720,962.890625,257.8125,-111.328125,-0.1466076571675237,-0.17837264955382048,0.07819075048934597,-1241,-1634,-1232,3918,307,100650
11:53:33.516,19721,965.8203125,262.6953125,-103.515625,-0.12461650859239513,-0.1954768762233649,0.11239920382843484,-1245,-1642,-1229,3918,307,100650
11:53:33.526,19722,963.8671875,266.6015625,-95.703125,-0.1148426647812269,-0.19181168479417682,0.12828170002158323,-1245,-1642,-1229,3918,307,100650
11:53:33.546,19723,967.7734375,262.6953125,-87.890625,-0.11606439525762292,-0.1820378409830086,0.1233947781159991,-1245,-1642,-1229,3918,307,100650
11:53:33.567,19724,975.5859375,268.5546875,-77.1484375,-0.12461650859239513,-0.17959438003021652,0.1307251609743753,-1245,-1642,-1229,3918,307,100650
11:53:33.587,19725,968.75,267.578125,-68.359375,-0.1478293876439197,-0.15882496193148402,0.11850785621041499,-1242,-1649,-1221,3918,307,100650
11:53:33.608,19726,965.8203125,269.53125,-67.3828125,-0.1392772743091475,-0.12950343049797927,0.11850785621041499,-1242,-1649,-1221,3918,307,100650
11:53:33.618,19727,959.9609375,273.4375,-72.265625,-0.1148426647812269,-0.10140362954087055,0.1392772743091475,-1242,-1649,-1221,3918,307,100650
11:53:33.638,19728,964.84375,280.2734375,-66.40625,-0.07574728953655392,-0.09285151620609834,0.15393804002589986,-1242,-1649,-1221,3918,307,100650
11:53:33.679,19729,983.3984375,277.34375,-58.59375,-0.0867428638241182,-0.07819075048934597,0.1502728485967118,-1242,-1649,-1221,3918,307,100650
11:53:33.689,19730,985.3515625,283.203125,-59.5703125,-0.10873401239924674,-0.06963863715457375,0.1466076571675237,-1246,-1655,-1236,3918,307,100650
11:53:33.709,19731,974.609375,290.0390625,-61.5234375,-0.12095131716320705,-0.05009094953223726,0.12217304763960309,-1246,-1655,-1236,3918,307,100650
11:53:33.730,19732,961.9140625,295.8984375,-61.5234375,-0.10629055144645469,-0.03665191429188092,0.1356120828799594,-1246,-1655,-1236,3918,307,100650
11:53:33.750,19733,958.984375,292.96875,-58.59375,-0.05742133239061345,-0.010995574287564277,0.14416419621473164,-1246,-1655,-1236,3918,307,100650
11:53:33.771,19734,950.1953125,296.875,-66.40625,-0.06108652381980154,0.013439035240356337,0.13316862192716736,-1246,-1655,-1236,3918,307,100650
11:53:33.781,19735,949.21875,293.9453125,-69.3359375,-0.04642575810304917,0.024434609527920613,0.11606439525762292,-1246,-1660,-1230,3918,307,100650
11:53:33.821,19736,953.125,291.015625,-73.2421875,-0.04276056667386108,0.03665191429188092,0.10262536001726659,-1246,-1660,-1230,3918,307,100650
11:53:33.842,19737,960.9375,298.828125,-70.3125,-0.051312680008633295,0.039095375244672985,0.0830776723949301,-1246,-1660,-1230,3918,307,100650
11:53:33.892,19738,974.609375,291.9921875,-73.2421875,-0.014660765716752368,0.05619960191421742,0.06108652381980154,-1246,-1660,-1230,3918,307,100650
11:53:33.913,19739,974.609375,292.96875,-77.1484375,0.025656340004316647,0.07452555906015788,0.06597344572538566,-1246,-1660,-1230,3918,307,100650
11:53:33.933,19740,975.5859375,291.9921875,-91.796875,0.05009094953223726,0.08429940287132612,0.05986479334340551,-1248,-1669,-1239,3918,307,100650
11:53:33.944,19741,990.234375,288.0859375,-96.6796875,0.08552113334772216,0.09162978572970232,0.04520402762665313,-1248,-1669,-1239,3918,307,100650
11:53:33.964,19742,1007.8125,283.203125,-107.421875,0.06597344572538566,0.08552113334772216,0.014660765716752368,-1248,-1669,-1239,3918,307,100650
11:53:33.985,19743,1008.7890625,267.578125,-105.46875,0.04276056667386108,0.0671951762017817,-0.04398229715025711,-1248,-1669,-1239,3918,307,100650
11:53:34.5,19744,999.0234375,262.6953125,-109.375,0.007330382858376184,0.05375614096142535,-0.0952949771588904,-1245,-1673,-1244,3918,307,100650
11:53:34.26,19745,997.0703125,250.0,-120.1171875,-0.02809980095710871,0.03298672286269283,-0.11972958668681102,-1245,-1673,-1244,3918,307,100650
11:53:34.36,19746,996.09375,235.3515625,-117.1875,-0.03420845333908886,0.03420845333908886,-0.1429424657383356,-1245,-1673,-1244,3918,307,100650
11:53:34.56,19747,982.421875,224.609375,-117.1875,-0.024434609527920613,0.010995574287564277,-0.13805554383275148,-1245,-1673,-1244,3918,307,100650
11:53:34.77,19748,976.5625,221.6796875,-113.28125,-0.021991148575128554,-0.006108652381980153,-0.13316862192716736,-1245,-1673,-1244,3918,307,100650
11:53:34.97,19749,978.515625,215.8203125,-106.4453125,-0.0158824961931484,-0.026878070480712675,-0.1270599695451872,-1239,-1667,-1243,3918,307,100650
11:53:34.117,19750,975.5859375,216.796875,-98.6328125,0.003665191429188092,-0.03665191429188092,-0.11850785621041499,-1239,-1667,-1243,3918,307,100650
11:53:34.127,19751,980.46875,211.9140625,-96.6796875,0.007330382858376184,-0.04153883619746505,-0.11728612573401895,-1239,-1667,-1243,3918,307,100650
11:53:34.148,19752,979.4921875,208.0078125,-89.84375,-0.0024434609527920616,-0.048869219055841226,-0.10629055144645469,-1239,-1667,-1243,3896,307,100650
11:53:34.168,19753,975.5859375,220.703125,-81.0546875,-0.021991148575128554,-0.03787364476827696,-0.09773843811168245,-1239,-1667,-1243,3896,307,100650
11:53:34.188,19754,973.6328125,217.7734375,-76.171875,-0.013439035240356337,-0.02809980095710871,-0.08185594191853407,-1241,-1663,-1244,3896,307,100650
11:53:34.198,19755,980.46875,220.703125,-75.1953125,-0.010995574287564277,-0.026878070480712675,-0.05009094953223726,-1241,-1663,-1244,3896,307,100650
11:53:34.219,19756,988.28125,219.7265625,-73.2421875,-0.007330382858376184,-0.0317649923862968,-0.01832595714594046,-1241,-1663,-1244,3896,307,100650
11:53:34.239,19757,985.3515625,233.3984375,-59.5703125,0.0012217304763960308,-0.014660765716752368,-0.0012217304763960308,-1241,-1663,-1244,3896,307,100650
11:53:34.259,19758,982.421875,234.375,-62.5,0.0012217304763960308,-0.014660765716752368,0.006108652381980153,-1244,-1665,-1246,3896,307,100650
11:53:34.280,19759,981.4453125,237.3046875,-66.40625,-0.0012217304763960308,0.010995574287564277,0.010995574287564277,-1244,-1665,-1246,3896,307,100650
11:53:34.290,19760,980.46875,239.2578125,-65.4296875,-0.0012217304763960308,0.0317649923862968,0.0024434609527920616,-1244,-1665,-1246,3896,307,100650
11:53:34.310,19761,979.4921875,247.0703125,-67.3828125,0.01710422666954443,0.05375614096142535,-0.008552113334772215,-1244,-1665,-1246,3896,307,100650
11:53:34.331,19762,983.3984375,254.8828125,-65.4296875,0.051312680008633295,0.05619960191421742,-0.012217304763960306,-1244,-1665,-1246,3896,307,100650
11:53:34.351,19763,982.421875,249.0234375,-69.3359375,0.07452555906015788,0.05986479334340551,-0.019547687622336492,-1243,-1666,-1244,3896,307,100650
11:53:34.382,19764,981.4453125,238.28125,-71.2890625,0.07330382858376185,0.07696902001294993,-0.023212879051524585,-1243,-1666,-1244,3896,307,100650
11:53:34.402,19765,991.2109375,238.28125,-72.265625,0.04520402762665313,0.07208209810736582,-0.007330382858376184,-1243,-1666,-1244,3896,307,100650
11:53:34.423,19766,994.140625,243.1640625,-73.2421875,0.051312680008633295,0.058643062867009474,0.008552113334772215,-1243,-1666,-1244,3896,307,100650
11:53:34.443,19767,997.0703125,241.2109375,-69.3359375,0.05742133239061345,0.07086036763096978,-0.008552113334772215,-1243,-1666,-1244,3896,307,100650
11:53:34.453,19768,999.0234375,234.375,-74.21875,0.06108652381980154,0.07330382858376185,-0.007330382858376184,-1237,-1664,-1264,3896,307,100650
11:53:34.473,19769,989.2578125,240.234375,-76.171875,0.05986479334340551,0.06963863715457375,-0.013439035240356337,-1237,-1664,-1264,3896,307,100650
11:53:34.494,19770,976.5625,247.0703125,-75.1953125,0.07819075048934597,0.08552113334772216,-0.003665191429188092,-1237,-1664,-1264,3896,307,100650
11:53:34.514,19771,976.5625,222.65625,-75.1953125,0.08429940287132612,0.07819075048934597,-0.004886921905584123,-1237,-1664,-1264,3896,307,100650
11:53:34.535,19772,973.6328125,230.46875,-75.1953125,0.05986479334340551,0.07452555906015788,0.010995574287564277,-1235,-1671,-1272,3896,307,100650
11:53:34.545,19773,965.8203125,235.3515625,-75.1953125,0.10262536001726659,0.04520402762665313,0.014660765716752368,-1235,-1671,-1272,3896,307,100650
11:53:34.565,19774,975.5859375,227.5390625,-69.3359375,0.08552113334772216,0.03054326190990077,-0.007330382858376184,-1235,-1671,-1272,3896,307,100650
11:53:34.586,19775,979.4921875,207.03125,-71.2890625,0.025656340004316647,0.019547687622336492,-0.026878070480712675,-1235,-1671,-1272,3896,307,100650
11:53:34.606,19776,980.46875,206.0546875,-69.3359375,-0.048869219055841226,-0.01710422666954443,-0.03420845333908886,-1235,-1671,-1272,3896,307,100650
11:53:34.626,19777,982.421875,208.984375,-60.546875,-0.1392772743091475,-0.03665191429188092,-0.024434609527920613,-1241,-1669,-1278,3896,307,100650
11:53:34.657,19778,993.1640625,225.5859375,-50.78125,-0.1551597705022959,-0.06230825429619757,0.0024434609527920616,-1241,-1669,-1278,3896,307,100650
11:53:34.678,19779,989.2578125,247.0703125,-40.0390625,-0.1551597705022959,-0.06963863715457375,-0.003665191429188092,-1241,-1669,-1278,3896,307,100650
11:53:34.698,19780,998.046875,255.859375,-41.015625,-0.12828170002158323,-0.058643062867009474,-0.02809980095710871,-1241,-1669,-1278,3896,307,100650
11:53:34.708,19781,999.0234375,231.4453125,-51.7578125,-0.0989601685880785,-0.024434609527920613,-0.048869219055841226,-1241,-1669,-1278,3896,307,100650
11:53:34.729,19782,1003.90625,230.46875,-52.734375,-0.14416419621473164,-0.014660765716752368,-0.029321531433504737,-1236,-1669,-1262,3896,307,100650
11:53:34.749,19783,1004.8828125,238.28125,-54.6875,-0.14049900478554353,-0.026878070480712675,-0.007330382858376184,-1236,-1669,-1262,3896,307,100650
11:53:34.770,19784,1002.9296875,237.3046875,-57.6171875,-0.12461650859239513,-0.04031710572106901,0.006108652381980153,-1236,-1669,-1262,3896,307,100650
11:53:34.801,19785,998.046875,236.328125,-58.59375,-0.0952949771588904,-0.039095375244672985,-0.009773843811168246,-1236,-1669,-1262,3896,307,100650
11:53:34.821,19786,985.3515625,231.4453125,-61.5234375,-0.0989601685880785,-0.05375614096142535,-0.02809980095710871,-1237,-1670,-1260,3896,307,100650
11:53:34.841,19787,985.3515625,221.6796875,-64.453125,-0.10506882097005865,-0.0476474885794452,-0.03543018381548489,-1237,-1670,-1260,3896,307,100650
11:53:34.862,19788,980.46875,216.796875,-62.5,-0.11972958668681102,-0.052534410485029326,-0.024434609527920613,-1237,-1670,-1260,3896,307,100650
11:53:34.882,19789,982.421875,218.75,-61.5234375,-0.13683381335635544,-0.07086036763096978,0.0012217304763960308,-1237,-1670,-1260,3896,307,100650
11:53:34.892,19790,987.3046875,231.4453125,-56.640625,-0.14172073526193957,-0.10140362954087055,0.021991148575128554,-1237,-1670,-1260,3896,307,100650
11:53:34.913,19791,988.28125,232.421875,-49.8046875,-0.12583823906879116,-0.10629055144645469,0.012217304763960306,-1239,-1675,-1260,3896,307,100650
11:53:34.933,19792,993.1640625,233.3984375,-49.8046875,-0.11239920382843484,-0.10018189906447451,0.0024434609527920616,-1239,-1675,-1260,3896,307,100650
11:53:34.953,19793,993.1640625,230.46875,-43.9453125,-0.11362093430483088,-0.08552113334772216,-0.020769418098732523,-1239,-1675,-1260,3896,307,100650
11:53:34.963,19794,992.1875,229.4921875,-42.96875,-0.1478293876439197,-0.07819075048934597,-0.019547687622336492,-1239,-1675,-1260,3896,307,100650
11:53:34.984,19795,996.09375,240.234375,-46.875,-0.16737707526625623,-0.09651670763528641,-0.003665191429188092,-1239,-1675,-1260,3896,307,100650
11:53:35.4,19796,992.1875,236.328125,-39.0625,-0.1392772743091475,-0.0989601685880785,0.007330382858376184,-1235,-1676,-1269,3896,307,100650
11:53:35.24,19797,984.375,237.3046875,-41.015625,-0.13194689145077132,-0.10018189906447451,0.008552113334772215,-1235,-1676,-1269,3896,307,100650
11:53:35.45,19798,979.4921875,236.328125,-54.6875,-0.1270599695451872,-0.09407324668249437,0.006108652381980153,-1235,-1676,-1269,3896,307,100650
11:53:35.75,19799,983.3984375,234.375,-48.828125,-0.10262536001726659,-0.08185594191853407,0.0,-1235,-1676,-1269,3896,307,100650
11:53:35.95,19800,982.421875,231.4453125,-50.78125,-0.0830776723949301,-0.08429940287132612,0.01832595714594046,-1235,-1677,-1257,3896,307,100650
11:53:35.116,19801,979.4921875,232.421875,-50.78125,-0.09773843811168245,-0.1148426647812269,0.020769418098732523,-1235,-1677,-1257,3896,307,100650
11:53:35.136,19802,978.515625,233.3984375,-45.8984375,-0.10629055144645469,-0.10506882097005865,0.008552113334772215,-1235,-1677,-1257,3908,307,100650
11:53:35.146,19803,979.4921875,240.234375,-41.9921875,-0.10018189906447451,-0.09651670763528641,-0.006108652381980153,-1235,-1677,-1257,3908,307,100650
11:53:35.167,19804,980.46875,239.2578125,-43.9453125,-0.09407324668249437,-0.09162978572970232,-0.03787364476827696,-1235,-1677,-1257,3908,307,100650
11:53:35.187,19805,982.421875,215.8203125,-45.8984375,-0.10506882097005865,-0.07452555906015788,-0.04642575810304917,-1235,-1681,-1256,3908,307,100650
11:53:35.218,19806,983.3984375,222.65625,-48.828125,-0.14538592669112765,-0.07330382858376185,-0.029321531433504737,-1235,-1681,-1256,3908,307,100650
11:53:35.238,19807,986.328125,227.5390625,-41.9921875,-0.17592918860102844,-0.0952949771588904,-0.014660765716752368,-1235,-1681,-1256,3908,307,100650
11:53:35.258,19808,978.515625,225.5859375,-41.9921875,-0.16371188383706814,-0.10995574287564278,-0.009773843811168246,-1235,-1681,-1256,3908,307,100650
11:53:35.278,19809,979.4921875,224.609375,-41.9921875,-0.1661553447898602,-0.12217304763960309,-0.008552113334772215,-1235,-1681,-1256,3908,307,100650
11:53:35.299,19810,982.421875,217.7734375,-49.8046875,-0.15760323145508798,-0.0989601685880785,-0.025656340004316647,-1241,-1680,-1271,3908,307,100650
11:53:35.309,19811,993.1640625,213.8671875,-37.109375,-0.14905111812031577,-0.0867428638241182,-0.03543018381548489,-1241,-1680,-1271,3908,307,100650
11:53:35.329,19812,999.0234375,206.0546875,-39.0625,-0.14905111812031577,-0.07574728953655392,-0.04276056667386108,-1241,-1680,-1271,3908,307,100650
11:53:35.350,19813,998.046875,203.125,-43.9453125,-0.1869247628885927,-0.07330382858376185,-0.04031710572106901,-1241,-1680,-1271,3908,307,100650
11:53:35.370,19814,991.2109375,211.9140625,-42.96875,-0.2150245638457014,-0.0635299847725936,-0.04642575810304917,-1241,-1680,-1271,3908,307,100650
11:53:35.390,19815,990.234375,224.609375,-44.921875,-0.16249015336067207,-0.048869219055841226,-0.04398229715025711,-1245,-1682,-1268,3908,307,100650
11:53:35.400,19816,994.140625,224.609375,-52.734375,-0.1233947781159991,-0.03787364476827696,-0.04276056667386108,-1245,-1682,-1268,3908,307,100650
11:53:35.420,19817,991.2109375,212.890625,-53.7109375,-0.10629055144645469,-0.03543018381548489,-0.04520402762665313,-1245,-1682,-1268,3908,307,100650
11:53:35.441,19818,990.234375,226.5625,-60.546875,-0.11606439525762292,-0.0476474885794452,-0.023212879051524585,-1245,-1682,-1268,3908,307,100650
11:53:35.461,19819,987.3046875,237.3046875,-56.640625,-0.08918632477691024,-0.05375614096142535,0.009773843811168246,-1243,-1672,-1263,3908,307,100650
11:53:35.492,19820,985.3515625,246.09375,-61.5234375,-0.04642575810304917,-0.04276056667386108,-0.008552113334772215,-1243,-1672,-1263,3908,307,100650
11:53:35.512,19821,982.421875,259.765625,-75.1953125,-0.02809980095710871,-0.03298672286269283,-0.029321531433504737,-1243,-1672,-1263,3908,307,100650
11:53:35.533,19822,983.3984375,286.1328125,-95.703125,-0.020769418098732523,-0.03787364476827696,-0.05375614096142535,-1243,-1672,-1263,3908,307,100650
11:53:35.554,19823,990.234375,364.2578125,-110.3515625,-0.0024434609527920616,-0.039095375244672985,-0.0867428638241182,-1243,-1672,-1263,3908,307,100650
11:53:35.564,19824,1007.8125,450.1953125,-140.625,0.05375614096142535,-0.05009094953223726,-0.16859880574265224,-1236,-1674,-1258,3908,307,100650
11:53:35.584,19825,1016.6015625,609.375,-153.3203125,0.14905111812031577,-0.06597344572538566,-0.32131511529215606,-1236,-1674,-1258,3908,307,100650
11:53:35.604,19826,1042.96875,787.109375,-145.5078125,0.5070181477043528,-0.08063421144213802,-0.6450736915371041,-1236,-1674,-1258,3908,307,100650
11:53:35.634,19827,1071.2890625,882.8125,-176.7578125,0.950506310636112,-0.06841690667817772,-1.0177014868378935,-1236,-1674,-1258,3908,307,100650
11:53:35.655,19828,1125.0,970.703125,-217.7734375,1.4184290830957917,-0.10140362954087055,-1.4514158059584847,-1236,-1674,-1258,3908,307,100650
11:53:35.675,19829,1171.875,1048.828125,-212.890625,1.7568484250574923,-0.15393804002589986,-2.0109683641478666,-1241,-1668,-1262,3908,307,100650
11:53:35.696,19830,1200.1953125,1057.6171875,-192.3828125,2.0146335555770545,-0.33108895910332437,-2.4300219175517053,-1241,-1668,-1262,3908,307,100650
11:53:35.716,19831,1222.65625,1038.0859375,-225.5859375,2.106263341306757,-0.4801400772236401,-2.8270843223804154,-1241,-1668,-1262,3908,307,100650
11:53:35.726,19832,1233.3984375,1077.1484375,-256.8359375,2.2015583184656475,-0.6426302305843121,-3.213151152921561,-1241,-1668,-1262,3908,307,100650
11:53:35.747,19833,1279.296875,1216.796875,-253.90625,2.4752259451783587,-0.7977900010866079,-3.7238344920551016,-1239,-1609,-1256,3908,307,100650
11:53:35.788,19834,1321.2890625,1168.9453125,-272.4609375,2.960252944307582,-0.956614963018092,-4.092797095926703,-1239,-1609,-1256,3908,307,100650
11:53:35.808,19835,1279.296875,1057.6171875,-313.4765625,3.208264231015977,-1.1093312725675961,-4.400673175978503,-1239,-1609,-1256,3908,307,100650
11:53:35.818,19836,1266.6015625,1179.6875,-370.1171875,3.2168163443507494,-1.2791518087866443,-4.634023696970145,-1239,-1609,-1256,3908,307,100650
11:53:35.839,19837,1206.0546875,1146.484375,-417.96875,3.0909781052819576,-1.4538592669112766,-4.790405197948837,-1239,-1609,-1256,3908,307,100650
11:53:35.859,19838,1111.328125,1098.6328125,-402.34375,2.935818334779662,-1.6566665259930178,-4.889365366536915,-1277,-1498,-1205,3908,307,100650
11:53:35.879,19839,1018.5546875,1142.578125,-382.8125,3.040887155749721,-1.8435912888816104,-4.939456316069153,-1277,-1498,-1205,3908,307,100650
11:53:35.889,19840,929.6875,1076.171875,-487.3046875,3.248581336737046,-1.988977215572738,-4.943121507498341,-1277,-1498,-1205,3908,307,100650
11:53:35.910,19841,816.40625,911.1328125,-492.1875,3.4037411072393415,-2.045176817486955,-4.917465167494023,-1277,-1498,-1205,3908,307,100650
11:53:35.930,19842,686.5234375,821.2890625,-465.8203125,3.346319774848728,-2.1294762203582813,-4.85393518272143,-1277,-1498,-1205,3908,307,100650
11:53:35.950,19843,555.6640625,775.390625,-489.2578125,3.3133330519860356,-2.2406536937103207,-4.708549256030303,-1399,-1412,-1109,3908,307,100650
11:53:35.971,19844,387.6953125,532.2265625,-449.21875,3.2155946138743525,-2.262644842285449,-4.467868352180284,-1399,-1412,-1109,3908,307,100650
11:53:35.981,19845,283.203125,491.2109375,-433.59375,2.9724702490715424,-2.2540927289506767,-4.142888045458941,-1399,-1412,-1109,3908,307,100650
11:53:36.2,19846,198.2421875,520.5078125,-449.21875,2.935818334779662,-2.2528709984742807,-3.7287214139606855,-1399,-1412,-1109,3908,307,100650
11:53:36.22,19847,76.171875,440.4296875,-508.7890625,2.9932396671702755,-2.138028333693054,-3.4770449358231037,-1559,-1421,-994,3908,307,100650
11:53:36.53,19848,-19.53125,286.1328125,-473.6328125,2.8869491157238207,-1.9291124222293325,-3.2791245986469466,-1559,-1421,-994,3908,307,100650
11:53:36.74,19849,-62.5,281.25,-460.9375,2.5864034185303972,-1.7727309212506406,-3.026226390032968,-1559,-1421,-994,3908,307,100650
11:53:36.94,19850,-156.25,243.1640625,-461.9140625,2.2602013813326565,-1.556484626928543,-2.7220155014103566,-1559,-1421,-994,3908,307,100650
11:53:36.115,19851,-216.796875,210.9375,-491.2109375,2.183232361319707,-1.3976596649970594,-2.4837780585131304,-1559,-1421,-994,3908,307,100650
11:53:36.135,19852,-245.1171875,90.8203125,-484.375,2.0879373841608166,-1.2144000935376547,-2.2809707994313895,-1685,-1506,-930,3896,307,100644
11:53:36.145,19853,-260.7421875,9.765625,-464.84375,1.8044959136369376,-1.0629055144645467,-2.0793852708260445,-1685,-1506,-930,3896,307,100644
11:53:36.165,19854,-288.0859375,-40.0390625,-468.75,1.2730431564046643,-0.8295549934729048,-1.8472564803107985,-1685,-1506,-930,3896,307,100644
11:53:36.206,19855,-303.7109375,-18.5546875,-532.2265625,1.0054841820739333,-0.6878342582109653,-1.668883830756978,-1685,-1506,-930,3896,307,100644
11:53:36.226,19856,-295.8984375,-36.1328125,-538.0859375,1.0567968620825665,-0.5766567848589266,-1.4892894507267616,-1685,-1506,-930,3896,307,100644
11:53:36.237,19857,-327.1484375,-116.2109375,-540.0390625,1.2351695116363872,-0.4654793115068877,-1.303586418314565,-1761,-1593,-916,3896,307,100644
11:53:36.257,19858,-358.3984375,-224.609375,-517.578125,1.121548577331556,-0.3274237676741363,-1.0592403230353586,-1761,-1593,-916,3896,307,100644
11:53:36.277,19859,-356.4453125,-279.296875,-567.3828125,0.6951646410693415,-0.22846359908605776,-0.8491026810952413,-1761,-1593,-916,3896,307,100644
11:53:36.297,19860,-332.03125,-203.125,-614.2578125,0.27733281814189903,-0.1429424657383356,-0.7171557896444701,-1761,-1593,-916,3896,307,100644
11:53:36.308,19861,-406.25,-128.90625,-654.296875,0.2138028333693054,-0.026878070480712675,-0.6426302305843121,-1789,-1649,-905,3896,307,100644
11:53:36.328,19862,-505.859375,-162.109375,-676.7578125,0.4166100924510465,0.15760323145508798,-0.5632177496185702,-1789,-1649,-905,3896,307,100644
11:53:36.348,19863,-538.0859375,-256.8359375,-666.015625,0.4838052686528282,0.26389378290154264,-0.48747046008201633,-1789,-1649,-905,3896,307,100644
11:53:36.369,19864,-515.625,-349.609375,-676.7578125,0.4043927876870862,0.3628539514896212,-0.3469714552964728,-1789,-1649,-905,3896,307,100644
11:53:36.389,19865,-522.4609375,-365.234375,-718.75,0.2309070600388498,0.4422664324553632,-0.18081611050661253,-1789,-1649,-905,3896,307,100644
11:53:36.399,19866,-497.0703125,-325.1953125,-741.2109375,0.10629055144645469,0.5033529562751646,0.02809980095710871,-1778,-1676,-907,3896,307,100644
11:53:36.420,19867,-466.796875,-337.890625,-736.328125,0.1734857276482364,0.5681046715241543,0.1954768762233649,-1778,-1676,-907,3896,307,100644
11:53:36.440,19868,-434.5703125,-331.0546875,-748.046875,0.35796702958403703,0.7086036763096979,0.31520646291017596,-1778,-1676,-907,3896,307,100644
11:53:36.481,19869,-416.015625,-333.0078125,-752.9296875,0.5070181477043528,0.831998454425697,0.40927970959267035,-1778,-1676,-907,3896,307,100644
11:53:36.491,19870,-393.5546875,-337.890625,-769.53125,0.4569271981721155,0.912632665867835,0.5656612105713622,-1778,-1676,-907,3896,307,100644
11:53:36.512,19871,-369.140625,-323.2421875,-800.78125,0.3286454981505323,1.0030407211211414,0.6646213791594408,-1754,-1693,-898,3896,307,100644
11:53:36.532,19872,-352.5390625,-289.0625,-844.7265625,0.31520646291017596,1.0910053154216555,0.7648032782239153,-1754,-1693,-898,3896,307,100644
11:53:36.553,19873,-308.59375,-273.4375,-887.6953125,0.4398229715025711,1.2034045192500902,0.8014551925157961,-1754,-1693,-898,3896,307,100644
11:53:36.563,19874,-276.3671875,-279.296875,-894.53125,0.7244861725028463,1.2620475821170998,0.8943067087218944,-1754,-1693,-898,3896,307,100644
11:53:36.583,19875,-247.0703125,-304.6875,-909.1796875,0.8051203839449842,1.269377964975476,1.0103711039795176,-1714,-1714,-907,3896,307,100644
11:53:36.625,19876,-202.1484375,-321.2890625,-919.921875,0.756251164889143,1.2705996954518721,1.1178833859023682,-1714,-1714,-907,3896,307,100644
11:53:36.645,19877,-136.71875,-334.9609375,-933.59375,0.5742133239061344,1.2657127735462879,1.2070697106792785,-1714,-1714,-907,3896,307,100644
11:53:36.655,19878,-30.2734375,-304.6875,-955.078125,0.34941491624926485,1.2583823906879117,1.2510520078295355,-1714,-1714,-907,3896,307,100644
11:53:36.676,19879,44.921875,-250.0,-973.6328125,0.2150245638457014,1.1997393278209023,1.2241739373488227,-1714,-1714,-907,3896,307,100644
11:53:36.696,19880,100.5859375,-225.5859375,-996.09375,0.17592918860102844,1.0958922373272395,1.1728612573401895,-1667,-1740,-903,3896,307,100644
11:53:36.716,19881,157.2265625,-223.6328125,-1002.9296875,0.12217304763960309,0.950506310636112,1.0653489754173389,-1667,-1740,-903,3896,307,100644
11:53:36.727,19882,224.609375,-230.46875,-1026.3671875,0.006108652381980153,0.6572909963010646,0.8845328649107264,-1667,-1740,-903,3896,307,100644
11:53:36.747,19883,260.7421875,-170.8984375,-1010.7421875,-0.12828170002158323,0.3872885610175418,0.6585127267774605,-1667,-1740,-903,3896,307,100644
11:53:36.767,19884,267.578125,-134.765625,-981.4453125,-0.17592918860102844,0.0867428638241182,0.3909537524467298,-1667,-1740,-903,3896,307,100644
11:53:36.788,19885,257.8125,-116.2109375,-940.4296875,-0.20036379812894903,-0.16371188383706814,0.06230825429619757,-1638,-1754,-911,3896,307,100644
11:53:36.808,19886,250.0,-113.28125,-925.78125,-0.0952949771588904,-0.4825835381764321,-0.35552356863124496,-1638,-1754,-911,3896,307,100644
11:53:36.818,19887,264.6484375,-95.703125,-944.3359375,0.03787364476827696,-0.7232644420264501,-0.6585127267774605,-1638,-1754,-911,3896,307,100644
11:53:36.839,19888,247.0703125,-148.4375,-931.640625,0.10873401239924674,-0.9443976582541318,-0.9187413182498152,-1638,-1754,-911,3896,307,100644
11:53:36.859,19889,216.796875,-175.78125,-926.7578125,0.08918632477691024,-1.11421819447318,-1.1740829878165857,-1635,-1759,-902,3896,307,100644
11:53:36.901,19890,215.8203125,-187.5,-916.015625,0.05986479334340551,-1.3267992973660896,-1.4123204307138115,-1635,-1759,-902,3896,307,100644
11:53:36.911,19891,199.21875,-228.515625,-915.0390625,0.08918632477691024,-1.4428636926237122,-1.5406021307353948,-1635,-1759,-902,3896,307,100644
11:53:36.931,19892,172.8515625,-255.859375,-938.4765625,0.12461650859239513,-1.5687019316925037,-1.663996908851394,-1635,-1759,-902,3896,307,100644
11:53:36.952,19893,94.7265625,-304.6875,-929.6875,0.06108652381980154,-1.6811011355209384,-1.709200936478047,-1635,-1759,-902,3896,307,100644
11:53:36.972,19894,27.34375,-373.046875,-889.6484375,-0.13805554383275148,-1.830152253641254,-1.6725490221861663,-1667,-1765,-899,3896,307,100644
11:53:36.983,19895,-103.515625,-418.9453125,-854.4921875,-0.3042108886226117,-1.8900170469846596,-1.5503759745465633,-1667,-1765,-899,3896,307,100644
11:53:37.3,19896,-286.1328125,-422.8515625,-852.5390625,-0.4227187448330266,-1.82526533173567,-1.4343115792889403,-1667,-1765,-899,3896,307,100644
11:53:37.44,19897,-446.2890625,-408.203125,-850.5859375,-0.4715879638888679,-1.7654005383922646,-1.2950343049797925,-1667,-1765,-899,3896,307,100644
11:53:37.64,19898,-457.03125,-421.875,-791.9921875,-0.5216789134211052,-1.7238617021947995,-1.0958922373272395,-1667,-1765,-899,3896,307,100644
11:53:37.74,19899,-473.6328125,-469.7265625,-709.9609375,-0.5131268000863329,-1.6591099869458097,-0.8600982553828056,-1726,-1757,-908,3896,307,100644
11:53:37.95,19900,-550.78125,-492.1875,-687.5,-0.5424483315198376,-1.59435827169682,-0.6878342582109653,-1726,-1757,-908,3896,307,100644
11:53:37.115,19901,-739.2578125,-483.3984375,-633.7890625,-0.594982742004867,-1.5039502164435137,-0.5473352534254218,-1726,-1757,-908,3896,307,100644
11:53:37.135,19902,-803.7109375,-459.9609375,-620.1171875,-0.5546656362837981,-1.34512525451203,-0.37140606482439337,-1726,-1757,-908,3896,307,100636
11:53:37.155,19903,-732.421875,-453.125,-634.765625,-0.41050144006906636,-1.19118721448613,-0.2846632010002752,-1726,-1757,-908,3896,307,100636
11:53:37.186,19904,-707.03125,-454.1015625,-660.15625,-0.2345722514680379,-1.028697061125458,-0.18448130193580062,-1786,-1744,-926,3896,307,100636
11:53:37.206,19905,-795.8984375,-513.671875,-631.8359375,-0.1429424657383356,-0.8796459430051422,-0.10506882097005865,-1786,-1744,-926,3896,307,100636
11:53:37.227,19906,-837.890625,-519.53125,-596.6796875,-0.2076941809873252,-0.7037167544041137,-0.05009094953223726,-1786,-1744,-926,3896,307,100636
11:53:37.237,19907,-814.453125,-472.65625,-630.859375,-0.1734857276482364,-0.560774288665778,-0.008552113334772215,-1786,-1744,-926,3896,307,100636
11:53:37.257,19908,-753.90625,-452.1484375,-698.2421875,-0.012217304763960306,-0.4410447019789671,-0.012217304763960306,-1820,-1736,-930,3896,307,100636
11:53:37.277,19909,-716.796875,-425.78125,-734.375,0.12095131716320705,-0.3335324200561164,-0.01710422666954443,-1820,-1736,-930,3896,307,100636
11:53:37.298,19910,-687.5,-458.0078125,-699.21875,0.11728612573401895,-0.2186897552748895,-0.0158824961931484,-1820,-1736,-930,3896,307,100636
11:53:37.318,19911,-653.3203125,-457.03125,-678.7109375,0.04276056667386108,-0.15149457907310784,-0.01710422666954443,-1820,-1736,-930,3896,307,100636
11:53:37.329,19912,-642.578125,-439.453125,-692.3828125,0.03543018381548489,-0.09285151620609834,-0.0476474885794452,-1820,-1736,-930,3896,307,100636
11:53:37.349,19913,-615.234375,-405.2734375,-731.4453125,0.0671951762017817,-0.05497787143782139,-0.029321531433504737,-1834,-1742,-931,3896,307,100636
11:53:37.370,19914,-580.078125,-407.2265625,-745.1171875,0.1111774733520388,-0.03543018381548489,-0.008552113334772215,-1834,-1742,-931,3896,307,100636
11:53:37.390,19915,-546.875,-406.25,-730.46875,0.09040805525330627,-0.019547687622336492,0.03298672286269283,-1834,-1742,-931,3896,307,100636
11:53:37.410,19916,-525.390625,-384.765625,-720.703125,0.052534410485029326,-0.019547687622336492,0.07208209810736582,-1834,-1742,-931,3896,307,100636
11:53:37.420,19917,-503.90625,-378.90625,-692.3828125,0.06963863715457375,-0.024434609527920613,0.10995574287564278,-1834,-1742,-931,3896,307,100636
11:53:37.461,19918,-484.375,-364.2578125,-716.796875,0.10262536001726659,-0.03665191429188092,0.1392772743091475,-1838,-1743,-932,3896,307,100636
11:53:37.482,19919,-466.796875,-361.328125,-750.0,0.09651670763528641,-0.04276056667386108,0.14172073526193957,-1838,-1743,-932,3896,307,100636
11:53:37.492,19920,-440.4296875,-367.1875,-753.90625,0.08552113334772216,-0.06475171524898964,0.18814649336498873,-1838,-1743,-932,3896,307,100636
11:53:37.513,19921,-421.875,-388.671875,-759.765625,0.05497787143782139,-0.05986479334340551,0.2528982086139784,-1838,-1743,-932,3896,307,100636
11:53:37.533,19922,-387.6953125,-391.6015625,-762.6953125,0.08063421144213802,-0.04642575810304917,0.35552356863124496,-1839,-1745,-936,3896,307,100636
11:53:37.554,19923,-331.0546875,-415.0390625,-790.0390625,0.16859880574265224,-0.05619960191421742,0.46670104198328377,-1839,-1745,-936,3896,307,100636
11:53:37.574,19924,-268.5546875,-463.8671875,-840.8203125,0.26389378290154264,-0.10506882097005865,0.6267477343911638,-1839,-1745,-936,3896,307,100636
11:53:37.605,19925,-264.6484375,-491.2109375,-843.75,0.2419026343264141,-0.1710422666954443,0.7965682706102121,-1839,-1745,-936,3896,307,100636
11:53:37.625,19926,-290.0390625,-505.859375,-821.2890625,0.19669860669976097,-0.22479840765686968,1.0079276430267254,-1839,-1745,-936,3896,307,100636
11:53:37.645,19927,-331.0546875,-499.0234375,-824.21875,0.19303341527057283,-0.26267205242514663,1.1875220230569419,-1843,-1743,-936,3896,307,100636
11:53:37.655,19928,-396.484375,-476.5625,-801.7578125,0.2419026343264141,-0.3103195410045918,1.3622294811815745,-1843,-1743,-936,3896,307,100636
11:53:37.676,19929,-483.3984375,-466.796875,-769.53125,0.33719761148530447,-0.3274237676741363,1.5210544431130584,-1843,-1743,-936,3896,307,100636
11:53:37.696,19930,-566.40625,-455.078125,-731.4453125,0.4459316238845512,-0.32131511529215606,1.703092284096067,-1843,-1743,-936,3896,307,100636
11:53:37.717,19931,-666.015625,-431.640625,-669.921875,0.4276056667386108,-0.28344147052387914,1.795943800302165,-1843,-1743,-936,3896,307,100636
11:53:37.737,19932,-727.5390625,-417.96875,-623.046875,0.44837508483734323,-0.2223549467040776,1.8985691603194317,-1860,-1747,-939,3896,307,100636
11:53:37.747,19933,-793.9453125,-355.46875,-576.171875,0.4300491276914028,-0.14416419621473164,1.9486601098516692,-1860,-1747,-939,3896,307,100636
11:53:37.767,19934,-882.8125,-328.125,-530.2734375,0.515570261039125,0.0024434609527920616,1.9559904927100453,-1860,-1747,-939,3896,307,100636
11:53:37.788,19935,-952.1484375,-323.2421875,-476.5625,0.555887366760194,0.17715091907742447,1.9291124222293325,-1860,-1747,-939,3896,307,100636
11:53:37.808,19936,-983.3984375,-337.890625,-481.4453125,0.5815437067645106,0.40194932673429407,1.912008195559788,-1876,-1737,-947,3896,307,100636
11:53:37.829,19937,-962.890625,-277.34375,-542.96875,0.5045746867515608,0.5998696639104512,1.8594737850747587,-1876,-1737,-947,3896,307,100636
11:53:37.839,19938,-944.3359375,-181.640625,-623.046875,0.4532620067429274,0.753807703936351,1.7666222688686608,-1876,-1737,-947,3896,307,100636
11:53:37.880,19939,-932.6171875,-169.921875,-635.7421875,0.4935791124639964,0.8576547944300136,1.7421876593407397,-1876,-1737,-947,3896,307,100636
11:53:37.901,19940,-908.203125,-181.640625,-607.421875,0.4715879638888679,0.9419541973013398,1.7275268936239874,-1876,-1737,-947,3896,307,100636
11:53:37.911,19941,-860.3515625,-194.3359375,-589.84375,0.3640756819660172,1.0189232173142897,1.7446311202935318,-1871,-1730,-937,3896,307,100636
11:53:37.931,19942,-810.546875,-120.1171875,-648.4375,0.28099800957108706,1.103222620185616,1.7739526517270368,-1871,-1730,-937,3896,307,100636
11:53:37.952,19943,-677.734375,64.453125,-788.0859375,0.2919935838586513,1.160643952576229,1.7421876593407397,-1871,-1730,-937,3896,307,100636
11:53:37.972,19944,-663.0859375,83.984375,-783.203125,0.3628539514896212,1.2168435544904468,1.6798794050445423,-1871,-1730,-937,3896,307,100636
11:53:37.993,19945,-641.6015625,57.6171875,-739.2578125,0.41294490102185843,1.3280210278424853,1.5772540450272756,-1871,-1730,-937,3896,307,100636
11:53:38.23,19946,-584.9609375,40.0390625,-738.28125,0.4434881629317592,1.4049900478554356,1.5063936773963058,-1838,-1714,-945,3896,307,100636
11:53:38.43,19947,-534.1796875,54.6875,-793.9453125,0.47280969436526393,1.4245377354777717,1.4941763726323456,-1838,-1714,-945,3896,307,100636
11:53:38.64,19948,-490.234375,101.5625,-857.421875,0.44837508483734323,1.430646387859752,1.5296065564478305,-1838,-1714,-945,3896,307,100636
11:53:38.84,19949,-416.9921875,87.890625,-883.7890625,0.3640756819660172,1.4489723450056926,1.5711453926452956,-1838,-1714,-945,3896,307,100636
11:53:38.94,19950,-296.875,104.4921875,-894.53125,0.36651914291880927,1.4929546421559494,1.547932513593771,-1794,-1717,-922,3896,307,100636
11:53:38.115,19951,-182.6171875,110.3515625,-938.4765625,0.4605923896013036,1.502728485967118,1.4697417631044252,-1794,-1717,-922,3896,307,100636
11:53:38.135,19952,-110.3515625,92.7734375,-975.5859375,0.4593706591249076,1.4147638916666034,1.430646387859752,-1794,-1717,-922,3908,307,100638
11:53:38.156,19953,-42.96875,56.640625,-979.4921875,0.3298672286269283,1.2828170002158323,1.4086552392846234,-1794,-1717,-922,3908,307,100638
11:53:38.176,19954,31.25,78.125,-1012.6953125,0.1233947781159991,1.0983356982800316,1.3402383326064458,-1794,-1717,-922,3908,307,100638
11:53:38.186,19955,81.0546875,134.765625,-1041.9921875,-0.05619960191421742,0.839328837284073,1.145983186859477,-1747,-1723,-903,3908,307,100638
11:53:38.207,19956,106.4453125,144.53125,-1074.21875,-0.06841690667817772,0.6096435077216195,0.8808676734815382,-1747,-1723,-903,3908,307,100638
11:53:38.227,19957,102.5390625,161.1328125,-1059.5703125,-0.18448130193580062,0.2919935838586513,0.5815437067645106,-1747,-1723,-903,3908,307,100638
11:53:38.248,19958,88.8671875,193.359375,-1007.8125,-0.26022859147235455,-0.021991148575128554,0.13194689145077132,-1747,-1723,-903,3908,307,100638
11:53:38.258,19959,69.3359375,182.6171875,-950.1953125,-0.2076941809873252,-0.39706240482871,-0.21746802479849348,-1747,-1723,-903,3908,307,100638
11:53:38.299,19960,63.4765625,198.2421875,-921.875,-0.17592918860102844,-0.6621779182066487,-0.5546656362837981,-1717,-1725,-910,3908,307,100638
11:53:38.320,19961,-12.6953125,165.0390625,-883.7890625,-0.16859880574265224,-0.8466592201424493,-0.8271115325201129,-1717,-1725,-910,3908,307,100638
11:53:38.340,19962,-58.59375,158.203125,-916.9921875,-0.1869247628885927,-0.9688322677820524,-1.1044443506620119,-1717,-1725,-910,3908,307,100638
11:53:38.350,19963,-77.1484375,182.6171875,-948.2421875,-0.16859880574265224,-1.072679358275715,-1.3048081487909609,-1717,-1725,-910,3908,307,100638
11:53:38.371,19964,-81.0546875,150.390625,-896.484375,-0.2150245638457014,-1.189965484009734,-1.4343115792889403,-1717,-1725,-910,3908,307,100638
11:53:38.391,19965,-81.0546875,129.8828125,-840.8203125,-0.41050144006906636,-1.3573425592759902,-1.5088371383490977,-1727,-1719,-908,3908,307,100638
11:53:38.412,19966,-171.875,184.5703125,-785.15625,-0.7098254067860938,-1.470963493580821,-1.5821409669328599,-1727,-1719,-908,3908,307,100638
11:53:38.442,19967,-248.046875,241.2109375,-833.0078125,-0.6817256058289851,-1.4550809973876726,-1.7153095888600272,-1727,-1719,-908,3908,307,100638
11:53:38.463,19968,-220.703125,244.140625,-857.421875,-0.5338962181850655,-1.4110987002374156,-1.8973474298430355,-1727,-1719,-908,3908,307,100638
11:53:38.483,19969,-262.6953125,178.7109375,-831.0546875,-0.5253441048502933,-1.4465288840529003,-2.023185668911827,-1778,-1716,-907,3908,307,100638
11:53:38.504,19970,-394.53125,91.796875,-776.3671875,-0.7134905982152819,-1.4917329116795537,-2.067167966062084,-1778,-1716,-907,3908,307,100638
11:53:38.514,19971,-487.3046875,78.125,-749.0234375,-0.8820894039579342,-1.467298302151633,-2.0830504622552324,-1778,-1716,-907,3908,307,100638
11:53:38.534,19972,-457.03125,92.7734375,-815.4296875,-0.8051203839449842,-1.4550809973876726,-2.1331414117874696,-1778,-1716,-907,3908,307,100638
11:53:38.555,19973,-551.7578125,-14.6484375,-799.8046875,-0.6585127267774605,-1.4428636926237122,-2.1697933260793505,-1778,-1716,-907,3908,307,100638
11:53:38.575,19974,-669.921875,-130.859375,-722.65625,-0.6927211801165495,-1.425759465954168,-2.1184806460707173,-1823,-1709,-922,3908,307,100638
11:53:38.595,19975,-729.4921875,-195.3125,-670.8984375,-0.7721336610822913,-1.3206906449841092,-2.045176817486955,-1823,-1709,-922,3908,307,100638
11:53:38.606,19976,-768.5546875,-342.7734375,-678.7109375,-0.7281513639320344,-1.1972958668681102,-1.9730947193795898,-1823,-1709,-922,3908,307,100638
11:53:38.626,19977,-805.6640625,-433.59375,-620.1171875,-0.751364242983559,-1.0751228192285072,-1.901012621272224,-1823,-1709,-922,3908,307,100638
