Timestamp,SampleNr,AccX [mg],AccY [mg],AccZ [mg],GyrX [rad/s],GyrY [rad/s],GyrZ [rad/s],MagX [mGs],MagY [mGs],-MagZ [mGs],Battery [mV],Temperature [0.1C],Pressure[Pa]
12:7:3.804,16999,-105.46875,99.609375,-993.1640625,-0.12828170002158323,-0.058643062867009474,0.039095375244672985,-1784,-1747,-917,3890,313,100640
12:7:3.825,17000,-102.5390625,112.3046875,-992.1875,-0.14538592669112765,-0.06230825429619757,0.03420845333908886,-1784,-1747,-917,3890,313,100640
12:7:3.835,17001,-117.1875,124.0234375,-988.28125,-0.1356120828799594,-0.06597344572538566,0.024434609527920613,-1784,-1747,-917,3890,313,100640
12:7:3.855,17002,-108.3984375,130.859375,-996.09375,-0.058643062867009474,-0.058643062867009474,0.0317649923862968,-1786,-1749,-922,3890,313,100643
12:7:3.876,17003,-104.4921875,115.234375,-993.1640625,-0.03543018381548489,-0.05375614096142535,0.020769418098732523,-1786,-1749,-922,3890,313,100643
12:7:3.896,17004,-100.5859375,105.46875,-983.3984375,-0.0671951762017817,-0.0671951762017817,0.03543018381548489,-1786,-1749,-922,3890,313,100643
12:7:3.907,17005,-113.28125,106.4453125,-981.4453125,-0.1356120828799594,-0.07452555906015788,0.026878070480712675,-1786,-1749,-922,3890,313,100643
12:7:3.999,17006,-119.140625,136.71875,-976.5625,-0.17837264955382048,-0.06475171524898964,0.013439035240356337,-1780,-1747,-922,3890,313,100643
12:7:4.19,17007,-114.2578125,160.15625,-983.3984375,-0.0671951762017817,-0.06475171524898964,0.009773843811168246,-1780,-1747,-922,3890,313,100643
12:7:4.40,17008,-105.46875,141.6015625,-978.515625,0.009773843811168246,-0.051312680008633295,-0.0158824961931484,-1780,-1747,-922,3890,313,100643
12:7:4.61,17009,-95.703125,125.0,-975.5859375,-0.019547687622336492,-0.0635299847725936,-0.023212879051524585,-1780,-1747,-922,3890,313,100643
12:7:4.81,17010,-99.609375,117.1875,-986.328125,-0.09285151620609834,-0.05009094953223726,-0.04642575810304917,-1780,-1747,-922,3890,313,100643
12:7:4.92,17011,-98.6328125,119.140625,-993.1640625,-0.14416419621473164,-0.052534410485029326,-0.05497787143782139,-1782,-1743,-945,3890,313,100643
12:7:4.112,17012,-104.4921875,130.859375,-1002.9296875,-0.10506882097005865,-0.0671951762017817,-0.04642575810304917,-1782,-1743,-945,3890,313,100643
12:7:4.132,17013,-106.4453125,112.3046875,-1000.9765625,-0.04398229715025711,-0.05986479334340551,-0.03543018381548489,-1782,-1743,-945,3890,313,100643
12:7:4.153,17014,-101.5625,116.2109375,-1000.0,-0.025656340004316647,-0.07452555906015788,-0.04642575810304917,-1782,-1743,-945,3890,313,100643
12:7:4.173,17015,-94.7265625,110.3515625,-1000.9765625,-0.08918632477691024,-0.07208209810736582,-0.06230825429619757,-1782,-1743,-945,3890,313,100643
12:7:4.183,17016,-103.515625,101.5625,-998.046875,-0.11972958668681102,-0.08552113334772216,-0.05619960191421742,-1778,-1744,-935,3890,313,100643
12:7:4.204,17017,-108.3984375,115.234375,-996.09375,-0.13194689145077132,-0.09162978572970232,-0.048869219055841226,-1778,-1744,-935,3890,313,100643
12:7:4.224,17018,-108.3984375,113.28125,-998.046875,-0.05497787143782139,-0.08918632477691024,-0.024434609527920613,-1778,-1744,-935,3890,313,100643
12:7:4.245,17019,-111.328125,89.84375,-979.4921875,-0.0024434609527920616,-0.0867428638241182,-0.007330382858376184,-1778,-1744,-935,3890,313,100643
12:7:4.255,17020,-101.5625,84.9609375,-975.5859375,-0.07941248096574201,-0.09040805525330627,-0.007330382858376184,-1778,-1744,-935,3890,313,100643
12:7:4.275,17021,-103.515625,109.375,-976.5625,-0.1148426647812269,-0.1038470904936626,0.009773843811168246,-1784,-1745,-933,3890,313,100643
12:7:4.296,17022,-105.46875,125.0,-965.8203125,-0.1075122819228507,-0.0952949771588904,-0.004886921905584123,-1784,-1745,-933,3890,313,100643
12:7:4.316,17023,-110.3515625,130.859375,-969.7265625,-0.07086036763096978,-0.08796459430051422,-0.01710422666954443,-1784,-1745,-933,3890,313,100643
12:7:4.336,17024,-110.3515625,125.9765625,-961.9140625,-0.03543018381548489,-0.07819075048934597,-0.026878070480712675,-1784,-1745,-933,3890,313,100643
12:7:4.347,17025,-102.5390625,108.3984375,-960.9375,-0.05009094953223726,-0.06597344572538566,-0.04153883619746505,-1779,-1739,-931,3890,313,100643
12:7:4.367,17026,-115.234375,106.4453125,-968.75,-0.10506882097005865,-0.06230825429619757,-0.05375614096142535,-1779,-1739,-931,3890,313,100643
12:7:4.388,17027,-111.328125,115.234375,-967.7734375,-0.14538592669112765,-0.06108652381980154,-0.05986479334340551,-1779,-1739,-931,3890,313,100643
12:7:4.409,17028,-110.3515625,116.2109375,-974.609375,-0.09407324668249437,-0.058643062867009474,-0.052534410485029326,-1779,-1739,-931,3890,313,100643
12:7:4.419,17029,-118.1640625,110.3515625,-984.375,-0.05497787143782139,-0.048869219055841226,-0.04276056667386108,-1779,-1739,-931,3890,313,100643
12:7:4.439,17030,-108.3984375,98.6328125,-998.046875,-0.03298672286269283,-0.04520402762665313,-0.01832595714594046,-1776,-1751,-924,3890,313,100643
12:7:4.460,17031,-94.7265625,99.609375,-1002.9296875,-0.05619960191421742,-0.04398229715025711,0.0,-1776,-1751,-924,3890,313,100643
12:7:4.481,17032,-96.6796875,99.609375,-1003.90625,-0.12095131716320705,-0.06475171524898964,-0.0158824961931484,-1776,-1751,-924,3890,313,100643
12:7:4.491,17033,-104.4921875,123.046875,-1004.8828125,-0.1270599695451872,-0.07330382858376185,-0.02809980095710871,-1776,-1751,-924,3890,313,100643
12:7:4.511,17034,-96.6796875,131.8359375,-998.046875,-0.06963863715457375,-0.06475171524898964,-0.04642575810304917,-1776,-1751,-924,3890,313,100643
12:7:4.532,17035,-93.75,105.46875,-993.1640625,-0.05497787143782139,-0.07941248096574201,-0.04153883619746505,-1779,-1742,-925,3890,313,100643
12:7:4.553,17036,-111.328125,94.7265625,-992.1875,-0.12583823906879116,-0.08796459430051422,-0.05009094953223726,-1779,-1742,-925,3890,313,100643
12:7:4.563,17037,-114.2578125,124.0234375,-998.046875,-0.11972958668681102,-0.08063421144213802,-0.03787364476827696,-1779,-1742,-925,3890,313,100643
12:7:4.583,17038,-111.328125,122.0703125,-994.140625,-0.051312680008633295,-0.08185594191853407,-0.0317649923862968,-1779,-1742,-925,3890,313,100643
12:7:4.604,17039,-106.4453125,89.84375,-988.28125,-0.012217304763960306,-0.08429940287132612,-0.03420845333908886,-1777,-1740,-925,3890,313,100643
12:7:4.624,17040,-103.515625,96.6796875,-991.2109375,-0.10995574287564278,-0.10262536001726659,-0.010995574287564277,-1777,-1740,-925,3890,313,100643
12:7:4.645,17041,-109.375,116.2109375,-980.46875,-0.12828170002158323,-0.10506882097005865,-0.0012217304763960308,-1777,-1740,-925,3890,313,100643
12:7:4.655,17042,-117.1875,132.8125,-977.5390625,-0.1111774733520388,-0.11972958668681102,-0.0158824961931484,-1777,-1740,-925,3890,313,100643
12:7:4.675,17043,-116.2109375,121.09375,-971.6796875,-0.06230825429619757,-0.0989601685880785,-0.03420845333908886,-1777,-1740,-925,3890,313,100643
12:7:4.696,17044,-108.3984375,115.234375,-969.7265625,-0.0952949771588904,-0.09162978572970232,-0.03054326190990077,-1785,-1743,-927,3890,313,100643
12:7:4.716,17045,-119.140625,123.046875,-969.7265625,-0.08185594191853407,-0.08796459430051422,-0.04276056667386108,-1785,-1743,-927,3890,313,100643
12:7:4.737,17046,-110.3515625,119.140625,-966.796875,-0.0671951762017817,-0.0952949771588904,-0.04276056667386108,-1785,-1743,-927,3890,313,100643
12:7:4.747,17047,-114.2578125,99.609375,-970.703125,-0.07330382858376185,-0.08429940287132612,-0.04031710572106901,-1785,-1743,-927,3890,313,100643
12:7:4.768,17048,-125.0,105.46875,-969.7265625,-0.08918632477691024,-0.07696902001294993,-0.019547687622336492,-1785,-1743,-927,3890,313,100643
12:7:4.789,17049,-122.0703125,119.140625,-972.65625,-0.08918632477691024,-0.08063421144213802,-0.020769418098732523,-1780,-1747,-933,3890,313,100643
12:7:4.809,17050,-119.140625,112.3046875,-968.75,-0.0671951762017817,-0.06841690667817772,-0.0317649923862968,-1780,-1747,-933,3890,313,100643
12:7:4.820,17051,-119.140625,126.953125,-968.75,-0.07819075048934597,-0.07574728953655392,-0.04153883619746505,-1780,-1747,-933,3890,313,100643
12:7:4.840,17052,-118.1640625,114.2578125,-970.703125,-0.07819075048934597,-0.06963863715457375,-0.04153883619746505,-1780,-1747,-933,3884,313,100646
12:7:4.861,17053,-120.1171875,106.4453125,-980.46875,-0.0952949771588904,-0.06597344572538566,-0.023212879051524585,-1789,-1750,-927,3884,313,100646
12:7:4.881,17054,-117.1875,118.1640625,-1000.0,-0.10262536001726659,-0.05497787143782139,-0.007330382858376184,-1789,-1750,-927,3884,313,100646
12:7:4.912,17055,-122.0703125,115.234375,-999.0234375,-0.07086036763096978,-0.058643062867009474,0.0024434609527920616,-1789,-1750,-927,3884,313,100646
12:7:4.932,17056,-103.515625,112.3046875,-1007.8125,-0.06108652381980154,-0.06963863715457375,0.019547687622336492,-1789,-1750,-927,3884,313,100646
12:7:4.952,17057,-111.328125,125.9765625,-992.1875,-0.07574728953655392,-0.09407324668249437,-0.0012217304763960308,-1789,-1750,-927,3884,313,100646
12:7:4.972,17058,-112.3046875,116.2109375,-981.4453125,-0.05619960191421742,-0.09651670763528641,-0.004886921905584123,-1796,-1748,-929,3884,313,100646
12:7:4.983,17059,-120.1171875,114.2578125,-976.5625,-0.05742133239061345,-0.08918632477691024,-0.023212879051524585,-1796,-1748,-929,3884,313,100646
12:7:5.3,17060,-114.2578125,125.0,-983.3984375,-0.07819075048934597,-0.07208209810736582,-0.04276056667386108,-1796,-1748,-929,3884,313,100646
12:7:5.23,17061,-124.0234375,115.234375,-975.5859375,-0.05375614096142535,-0.07330382858376185,-0.04398229715025711,-1796,-1748,-929,3884,313,100646
12:7:5.43,17062,-120.1171875,97.65625,-967.7734375,-0.05742133239061345,-0.06963863715457375,-0.05497787143782139,-1796,-1748,-929,3884,313,100646
12:7:5.64,17063,-124.0234375,104.4921875,-975.5859375,-0.07696902001294993,-0.06963863715457375,-0.026878070480712675,-1789,-1744,-922,3884,313,100646
12:7:5.75,17064,-123.046875,113.28125,-976.5625,-0.0671951762017817,-0.0867428638241182,-0.01710422666954443,-1789,-1744,-922,3884,313,100646
12:7:5.95,17065,-123.046875,96.6796875,-958.0078125,-0.09285151620609834,-0.08552113334772216,-0.03054326190990077,-1789,-1744,-922,3884,313,100646
12:7:5.116,17066,-127.9296875,108.3984375,-956.0546875,-0.12583823906879116,-0.0830776723949301,-0.020769418098732523,-1789,-1744,-922,3884,313,100646
12:7:5.136,17067,-121.09375,125.0,-963.8671875,-0.12583823906879116,-0.07696902001294993,-0.013439035240356337,-1789,-1749,-921,3884,313,100646
12:7:5.146,17068,-123.046875,127.9296875,-967.7734375,-0.07452555906015788,-0.051312680008633295,-0.0158824961931484,-1789,-1749,-921,3884,313,100646
12:7:5.188,17069,-124.0234375,118.1640625,-966.796875,-0.07452555906015788,-0.06108652381980154,-0.0158824961931484,-1789,-1749,-921,3884,313,100646
12:7:5.209,17070,-125.0,119.140625,-966.796875,-0.11972958668681102,-0.05986479334340551,-0.03543018381548489,-1789,-1749,-921,3884,313,100646
12:7:5.220,17071,-122.0703125,140.625,-977.5390625,-0.08063421144213802,-0.051312680008633295,-0.0317649923862968,-1789,-1749,-921,3884,313,100646
12:7:5.241,17072,-105.46875,118.1640625,-982.421875,0.020769418098732523,-0.03054326190990077,-0.020769418098732523,-1792,-1749,-926,3884,313,100646
12:7:5.262,17073,-110.3515625,92.7734375,-970.703125,-0.04031710572106901,-0.03543018381548489,-0.029321531433504737,-1792,-1749,-926,3884,313,100646
12:7:5.282,17074,-123.046875,100.5859375,-974.609375,-0.1343903524035634,-0.05619960191421742,-0.039095375244672985,-1792,-1749,-926,3884,313,100646
12:7:5.303,17075,-107.421875,133.7890625,-995.1171875,-0.13805554383275148,-0.0476474885794452,-0.0476474885794452,-1792,-1749,-926,3884,313,100646
12:7:5.333,17076,-108.3984375,114.2578125,-983.3984375,-0.05497787143782139,-0.05619960191421742,-0.025656340004316647,-1792,-1749,-926,3884,313,100646
12:7:5.354,17077,-120.1171875,99.609375,-993.1640625,-0.02809980095710871,-0.04642575810304917,-0.014660765716752368,-1785,-1746,-942,3884,313,100646
12:7:5.375,17078,-121.09375,94.7265625,-974.609375,-0.07941248096574201,-0.05497787143782139,-0.010995574287564277,-1785,-1746,-942,3884,313,100646
12:7:5.385,17079,-102.5390625,102.5390625,-956.0546875,-0.14049900478554353,-0.06108652381980154,-0.006108652381980153,-1785,-1746,-942,3884,313,100646
12:7:5.405,17080,-131.8359375,125.0,-957.03125,-0.12828170002158323,-0.04520402762665313,0.0024434609527920616,-1785,-1746,-942,3884,313,100646
12:7:5.426,17081,-120.1171875,130.859375,-942.3828125,-0.0671951762017817,-0.03665191429188092,-0.0024434609527920616,-1792,-1749,-926,3884,313,100646
12:7:5.446,17082,-107.421875,98.6328125,-912.109375,-0.051312680008633295,-0.008552113334772215,-0.0024434609527920616,-1792,-1749,-926,3884,313,100646
12:7:5.467,17083,-118.1640625,101.5625,-909.1796875,-0.12583823906879116,-0.0012217304763960308,-0.012217304763960306,-1792,-1749,-926,3884,313,100646
12:7:5.477,17084,-121.09375,93.75,-899.4140625,-0.1893682238413848,0.0317649923862968,-0.020769418098732523,-1792,-1749,-926,3884,313,100646
12:7:5.497,17085,-110.3515625,122.0703125,-893.5546875,-0.19669860669976097,0.06230825429619757,-0.014660765716752368,-1792,-1749,-926,3884,313,100646
12:7:5.518,17086,-106.4453125,122.0703125,-887.6953125,-0.15393804002589986,0.08918632477691024,-0.012217304763960306,-1785,-1741,-920,3884,313,100646
12:7:5.539,17087,-113.28125,100.5859375,-867.1875,-0.14172073526193957,0.10995574287564278,-0.010995574287564277,-1785,-1741,-920,3884,313,100646
12:7:5.549,17088,-105.46875,113.28125,-868.1640625,-0.17715091907742447,0.16982053621904827,-0.0024434609527920616,-1785,-1741,-920,3884,313,100646
12:7:5.570,17089,-89.84375,136.71875,-865.234375,-0.15760323145508798,0.2162462943220974,0.007330382858376184,-1785,-1741,-920,3884,313,100646
12:7:5.611,17090,-81.0546875,128.90625,-884.765625,-0.05009094953223726,0.27733281814189903,0.0012217304763960308,-1785,-1741,-920,3884,313,100646
12:7:5.621,17091,-66.40625,108.3984375,-875.9765625,-0.029321531433504737,0.32253684576855207,-0.009773843811168246,-1780,-1741,-932,3884,313,100646
12:7:5.641,17092,-63.4765625,111.328125,-867.1875,-0.07330382858376185,0.35185837720205687,-0.0012217304763960308,-1780,-1741,-932,3884,313,100646
12:7:5.662,17093,-69.3359375,94.7265625,-870.1171875,-0.10629055144645469,0.3652974124424132,0.007330382858376184,-1780,-1741,-932,3884,313,100646
12:7:5.682,17094,-50.78125,101.5625,-861.328125,-0.17226399717184035,0.40317105721069013,0.013439035240356337,-1780,-1741,-932,3884,313,100646
12:7:5.703,17095,-41.015625,152.34375,-883.7890625,-0.16004669240788005,0.45081854579013536,0.04398229715025711,-1780,-1741,-932,3884,313,100646
12:7:5.713,17096,-25.390625,162.109375,-883.7890625,0.004886921905584123,0.5326744877086694,0.05497787143782139,-1769,-1740,-920,3884,313,100646
12:7:5.753,17097,-7.8125,121.09375,-881.8359375,-0.023212879051524585,0.558330827712986,0.019547687622336492,-1769,-1740,-920,3884,313,100646
12:7:5.774,17098,7.8125,123.046875,-847.65625,-0.17470745812463243,0.5632177496185702,0.003665191429188092,-1769,-1740,-920,3884,313,100646
12:7:5.784,17099,18.5546875,146.484375,-853.515625,-0.22846359908605776,0.6035348553396392,0.019547687622336492,-1769,-1740,-920,3884,313,100646
12:7:5.804,17100,32.2265625,150.390625,-871.09375,-0.10873401239924674,0.6572909963010646,0.01710422666954443,-1742,-1734,-919,3884,313,100646
12:7:5.825,17101,53.7109375,128.90625,-868.1640625,-0.10873401239924674,0.7281513639320344,0.0024434609527920616,-1742,-1734,-919,3884,313,100646
12:7:5.948,17102,77.1484375,137.6953125,-864.2578125,-0.12217304763960309,0.7586946258419351,0.021991148575128554,-1742,-1734,-919,3884,313,100643
12:7:5.969,17103,98.6328125,155.2734375,-869.140625,-0.12461650859239513,0.7929030791810241,0.019547687622336492,-1742,-1734,-919,3884,313,100643
12:7:5.989,17104,117.1875,124.0234375,-881.8359375,-0.16004669240788005,0.8100073058505685,0.003665191429188092,-1742,-1734,-919,3884,313,100643
12:7:6.10,17105,102.5390625,166.015625,-858.3984375,-0.32375857624494814,0.8210028801381327,-0.03054326190990077,-1718,-1732,-912,3884,313,100643
12:7:6.30,17106,145.5078125,245.1171875,-891.6015625,-0.15271630954950383,0.8881980563399144,-0.04642575810304917,-1718,-1732,-912,3884,313,100643
12:7:6.40,17107,172.8515625,192.3828125,-894.53125,0.16493361431346415,0.9321803534901714,-0.07452555906015788,-1718,-1732,-912,3884,313,100643
12:7:6.61,17108,206.0546875,120.1171875,-867.1875,0.1307251609743753,0.9615018849236762,-0.1233947781159991,-1718,-1732,-912,3884,313,100643
12:7:6.82,17109,197.265625,140.625,-898.4375,-0.07330382858376185,0.9798278420696167,-0.12828170002158323,-1718,-1732,-912,3884,313,100643
12:7:6.102,17110,278.3203125,156.25,-881.8359375,-0.10873401239924674,1.0018189906447452,-0.09162978572970232,-1682,-1730,-913,3884,313,100643
12:7:6.113,17111,291.015625,153.3203125,-895.5078125,-0.02809980095710871,1.0323622525546459,-0.07574728953655392,-1682,-1730,-913,3884,313,100643
12:7:6.133,17112,283.203125,151.3671875,-887.6953125,0.01832595714594046,1.0897835849452593,-0.09651670763528641,-1682,-1730,-913,3884,313,100643
12:7:6.154,17113,322.265625,127.9296875,-830.078125,-0.03787364476827696,1.0934487763744476,-0.08429940287132612,-1682,-1730,-913,3884,313,100643
12:7:6.175,17114,365.234375,147.4609375,-878.90625,-0.08552113334772216,1.0995574287564276,-0.06230825429619757,-1636,-1735,-908,3884,313,100643
12:7:6.195,17115,366.2109375,129.8828125,-853.515625,-0.14049900478554353,1.1313224211427244,-0.10873401239924674,-1636,-1735,-908,3884,313,100643
12:7:6.206,17116,416.015625,118.1640625,-844.7265625,-0.2883283924294633,1.1728612573401895,-0.12217304763960309,-1636,-1735,-908,3884,313,100643
12:7:6.226,17117,380.859375,188.4765625,-865.234375,-0.28344147052387914,1.189965484009734,-0.10140362954087055,-1636,-1735,-908,3884,313,100643
12:7:6.247,17118,448.2421875,190.4296875,-887.6953125,-0.09040805525330627,1.231504320207199,-0.07574728953655392,-1636,-1735,-908,3884,313,100643
12:7:6.267,17119,481.4453125,149.4140625,-835.9375,-0.0024434609527920616,1.2510520078295355,-0.09407324668249437,-1585,-1732,-921,3884,313,100643
12:7:6.278,17120,513.671875,161.1328125,-830.078125,-0.12461650859239513,1.2583823906879117,-0.12828170002158323,-1585,-1732,-921,3884,313,100643
12:7:6.299,17121,545.8984375,210.9375,-873.046875,-0.03420845333908886,1.2815952697394362,-0.17837264955382048,-1585,-1732,-921,3884,313,100643
12:7:6.320,17122,547.8515625,126.953125,-849.609375,0.03420845333908886,1.3292427583188815,-0.20402898955813717,-1585,-1732,-921,3884,313,100643
12:7:6.340,17123,583.984375,101.5625,-829.1015625,-0.17592918860102844,1.2901473830742083,-0.17592918860102844,-1585,-1732,-921,3884,313,100643
12:7:6.360,17124,592.7734375,183.59375,-821.2890625,-0.2919935838586513,1.2705996954518721,-0.07574728953655392,-1533,-1728,-948,3884,313,100643
12:7:6.371,17125,603.515625,204.1015625,-874.0234375,-0.04276056667386108,1.3194689145077132,-0.06597344572538566,-1533,-1728,-948,3884,313,100643
12:7:6.392,17126,625.9765625,164.0625,-895.5078125,0.2223549467040776,1.350012176417614,-0.15638150097869194,-1533,-1728,-948,3884,313,100643
12:7:6.413,17127,702.1484375,113.28125,-840.8203125,0.2419026343264141,1.3133602621257332,-0.17226399717184035,-1533,-1728,-948,3884,313,100643
12:7:6.434,17128,666.015625,94.7265625,-812.5,0.026878070480712675,1.2559389297351196,-0.13194689145077132,-1480,-1726,-951,3884,313,100643
12:7:6.444,17129,697.265625,151.3671875,-841.796875,-0.0830776723949301,1.2095131716320704,-0.10140362954087055,-1480,-1726,-951,3884,313,100643
12:7:6.464,17130,719.7265625,177.734375,-809.5703125,-0.010995574287564277,1.2107349021084666,-0.12217304763960309,-1480,-1726,-951,3884,313,100643
12:7:6.486,17131,776.3671875,161.1328125,-801.7578125,0.10140362954087055,1.231504320207199,-0.16737707526625623,-1480,-1726,-951,3884,313,100643
12:7:6.506,17132,766.6015625,135.7421875,-777.34375,0.1307251609743753,1.2168435544904468,-0.2614503219487506,-1480,-1726,-951,3884,313,100643
12:7:6.516,17133,773.4375,109.375,-718.75,-0.013439035240356337,1.160643952576229,-0.2101376419401173,-1428,-1731,-986,3884,313,100643
12:7:6.537,17134,811.5234375,133.7890625,-695.3125,-0.22479840765686968,1.1252137687607444,-0.14416419621473164,-1428,-1731,-986,3884,313,100643
12:7:6.557,17135,810.546875,195.3125,-795.8984375,-0.2211332162276816,1.1056660811384078,-0.11972958668681102,-1428,-1731,-986,3884,313,100643
12:7:6.578,17136,827.1484375,222.65625,-767.578125,-0.023212879051524585,1.1398745344774965,-0.2150245638457014,-1428,-1731,-986,3884,313,100643
12:7:6.588,17137,801.7578125,122.0703125,-696.2890625,0.1270599695451872,1.1435397259066848,-0.2577851305195625,-1428,-1731,-986,3884,313,100643
12:7:6.609,17138,800.78125,90.8203125,-650.390625,0.021991148575128554,1.0800097411340912,-0.21258110289290938,-1389,-1725,-1015,3884,313,100643
12:7:6.660,17139,881.8359375,128.90625,-604.4921875,-0.24556782575560218,1.0225884087434776,-0.0952949771588904,-1389,-1725,-1015,3884,313,100643
12:7:6.681,17140,902.34375,208.984375,-661.1328125,-0.0012217304763960308,1.0189232173142897,-0.02809980095710871,-1389,-1725,-1015,3884,313,100643
12:7:6.701,17141,915.0390625,220.703125,-631.8359375,-0.15760323145508798,1.0604620535117548,-0.051312680008633295,-1389,-1725,-1015,3884,313,100643
12:7:6.722,17142,866.2109375,189.453125,-600.5859375,-0.048869219055841226,1.0983356982800316,-0.16249015336067207,-1354,-1722,-1055,3884,313,100643
12:7:6.743,17143,831.0546875,156.25,-583.0078125,-0.014660765716752368,1.0983356982800316,-0.20402898955813717,-1354,-1722,-1055,3884,313,100643
12:7:6.753,17144,881.8359375,196.2890625,-573.2421875,-0.048869219055841226,1.0445795573186063,-0.16859880574265224,-1354,-1722,-1055,3884,313,100643
12:7:6.773,17145,965.8203125,207.03125,-499.0234375,-0.15271630954950383,0.9639453458764682,-0.07330382858376185,-1354,-1722,-1055,3884,313,100643
12:7:6.793,17146,974.609375,225.5859375,-471.6796875,-0.29932396671702755,0.9334020839665675,-0.07330382858376185,-1354,-1722,-1055,3884,313,100643
12:7:6.814,17147,901.3671875,263.671875,-515.625,-0.45081854579013536,0.9468411192069238,-0.15393804002589986,-1317,-1711,-1081,3884,313,100643
12:7:6.834,17148,887.6953125,271.484375,-515.625,-0.37629298672997746,1.0079276430267254,-0.3066543495754037,-1317,-1711,-1081,3884,313,100643
12:7:6.844,17149,935.546875,260.7421875,-483.3984375,-0.2724458962363148,1.0348057135074382,-0.3445279943436807,-1317,-1711,-1081,3884,313,100643
12:7:6.864,17150,1015.625,250.0,-426.7578125,-0.19181168479417682,1.0054841820739333,-0.2712241657599188,-1317,-1711,-1081,3884,313,100643
12:7:6.885,17151,1039.0625,221.6796875,-388.671875,-0.1307251609743753,0.9798278420696167,-0.21258110289290938,-1317,-1711,-1081,3884,313,100643
12:7:6.905,17152,1022.4609375,215.8203125,-386.71875,-0.10995574287564278,0.984714763975201,-0.22479840765686968,-1295,-1698,-1112,3884,313,100652
12:7:6.916,17153,966.796875,194.3359375,-427.734375,-0.0158824961931484,1.03114052207825,-0.2932153143350474,-1295,-1698,-1112,3884,313,100652
12:7:6.936,17154,964.84375,189.453125,-380.859375,0.08185594191853407,1.0812314716104872,-0.3384193419617005,-1295,-1698,-1112,3884,313,100652
12:7:6.957,17155,993.1640625,157.2265625,-370.1171875,0.09040805525330627,1.0763445497049031,-0.31887165433936404,-1295,-1698,-1112,3884,313,100652
12:7:6.977,17156,1019.53125,150.390625,-352.5390625,0.05742133239061345,1.0372491744602301,-0.21746802479849348,-1280,-1690,-1147,3884,313,100652
12:7:6.998,17157,1051.7578125,142.578125,-325.1953125,-0.04642575810304917,0.9712757287348445,-0.1356120828799594,-1280,-1690,-1147,3884,313,100652
12:7:7.8,17158,1035.15625,140.625,-303.7109375,-0.16493361431346415,0.9370672753957556,-0.09651670763528641,-1280,-1690,-1147,3884,313,100652
12:7:7.29,17159,998.046875,146.484375,-281.25,-0.2700024352835228,0.9285151620609834,-0.07208209810736582,-1280,-1690,-1147,3884,313,100652
12:7:7.49,17160,989.2578125,163.0859375,-285.15625,-0.3139847324337799,0.9541715020653,-0.058643062867009474,-1280,-1690,-1147,3884,313,100652
12:7:7.70,17161,1013.671875,203.125,-284.1796875,-0.2223549467040776,0.9700539982584484,-0.05497787143782139,-1261,-1688,-1191,3884,313,100652
12:7:7.80,17162,1019.53125,216.796875,-279.296875,-0.06963863715457375,0.9431759277777358,-0.020769418098732523,-1261,-1688,-1191,3884,313,100652
12:7:7.100,17163,1024.4140625,213.8671875,-261.71875,0.026878070480712675,0.8955284391982905,-0.003665191429188092,-1261,-1688,-1191,3884,313,100652
12:7:7.121,17164,1018.5546875,199.21875,-251.953125,-0.023212879051524585,0.8503244115716375,-0.012217304763960306,-1261,-1688,-1191,3884,313,100652
12:7:7.141,17165,1010.7421875,172.8515625,-254.8828125,-0.20891591146372127,0.791681348704628,-0.029321531433504737,-1261,-1688,-1191,3884,313,100652
12:7:7.162,17166,1007.8125,212.890625,-267.578125,-0.3885102914939378,0.7599163563183312,-0.052534410485029326,-1240,-1680,-1216,3884,313,100652
12:7:7.172,17167,1003.90625,265.625,-279.296875,-0.38362336958835364,0.7000515629749257,-0.039095375244672985,-1240,-1680,-1216,3884,313,100652
12:7:7.193,17168,1008.7890625,269.53125,-266.6015625,-0.22846359908605776,0.6475171524898963,0.007330382858376184,-1240,-1680,-1216,3884,313,100652
12:7:7.214,17169,1015.625,283.203125,-256.8359375,-0.03665191429188092,0.5546656362837981,0.052534410485029326,-1240,-1680,-1216,3884,313,100652
12:7:7.234,17170,1021.484375,272.4609375,-251.953125,0.07330382858376185,0.4935791124639964,0.04153883619746505,-1240,-1680,-1216,3884,313,100652
12:7:7.244,17171,1024.4140625,249.0234375,-230.46875,0.09773843811168245,0.43371431912059094,0.03420845333908886,-1237,-1685,-1253,3884,313,100652
12:7:7.264,17172,1037.109375,240.234375,-205.078125,0.07330382858376185,0.3738495257771854,0.010995574287564277,-1237,-1685,-1253,3884,313,100652
12:7:7.285,17173,1035.15625,253.90625,-169.921875,0.05375614096142535,0.32375857624494814,-0.019547687622336492,-1237,-1685,-1253,3884,313,100652
12:7:7.305,17174,1026.3671875,256.8359375,-169.921875,0.10873401239924674,0.31764992386296803,-0.058643062867009474,-1237,-1685,-1253,3884,313,100652
12:7:7.326,17175,1020.5078125,175.78125,-199.21875,0.1111774733520388,0.2516764781375823,-0.06108652381980154,-1235,-1680,-1277,3884,313,100652
12:7:7.336,17176,1034.1796875,167.96875,-219.7265625,-0.2431243648028101,0.16126842288427604,-0.07330382858376185,-1235,-1680,-1277,3884,313,100652
12:7:7.356,17177,1020.5078125,235.3515625,-190.4296875,-0.21746802479849348,0.010995574287564277,-0.06841690667817772,-1235,-1680,-1277,3884,313,100652
12:7:7.378,17178,1000.0,215.8203125,-167.96875,0.04398229715025711,-0.06108652381980154,-0.08552113334772216,-1235,-1680,-1277,3884,313,100652
12:7:7.398,17179,975.5859375,202.1484375,-122.0703125,0.27611108766550296,-0.0989601685880785,-0.07941248096574201,-1235,-1680,-1277,3884,313,100652
12:7:7.409,17180,967.7734375,208.0078125,-87.890625,0.3445279943436807,-0.09407324668249437,-0.09773843811168245,-1230,-1678,-1275,3884,313,100652
12:7:7.429,17181,984.375,229.4921875,-67.3828125,0.516791991515521,-0.0989601685880785,-0.07941248096574201,-1230,-1678,-1275,3884,313,100652
12:7:7.450,17182,982.421875,198.2421875,-51.7578125,0.42394047530942264,-0.08918632477691024,-0.07086036763096978,-1230,-1678,-1275,3884,313,100652
12:7:7.470,17183,977.5390625,189.453125,-19.53125,0.12828170002158323,-0.09407324668249437,-0.05009094953223726,-1230,-1678,-1275,3884,313,100652
12:7:7.481,17184,969.7265625,212.890625,1.953125,-0.14538592669112765,-0.1148426647812269,-0.021991148575128554,-1230,-1678,-1275,3884,313,100652
12:7:7.501,17185,976.5625,238.28125,14.6484375,-0.2528982086139784,-0.1075122819228507,-0.019547687622336492,-1235,-1680,-1286,3884,313,100652
12:7:7.522,17186,982.421875,258.7890625,4.8828125,-0.22479840765686968,-0.08796459430051422,-0.021991148575128554,-1235,-1680,-1286,3884,313,100652
12:7:7.542,17187,973.6328125,254.8828125,-13.671875,-0.1551597705022959,-0.0671951762017817,-0.04153883619746505,-1235,-1680,-1286,3884,313,100652
12:7:7.573,17188,984.375,241.2109375,-33.203125,-0.1270599695451872,-0.03665191429188092,-0.05375614096142535,-1235,-1680,-1286,3884,313,100652
12:7:7.593,17189,998.046875,229.4921875,-38.0859375,-0.1392772743091475,-0.03665191429188092,-0.06963863715457375,-1235,-1678,-1284,3884,313,100652
12:7:7.615,17190,1002.9296875,226.5625,-57.6171875,-0.14416419621473164,-0.03543018381548489,-0.05742133239061345,-1235,-1678,-1284,3884,313,100652
12:7:7.625,17191,1003.90625,232.421875,-68.359375,-0.10506882097005865,-0.03420845333908886,-0.04398229715025711,-1235,-1678,-1284,3884,313,100652
12:7:7.646,17192,1006.8359375,228.515625,-76.171875,-0.051312680008633295,-0.058643062867009474,-0.01710422666954443,-1235,-1678,-1284,3884,313,100652
12:7:7.666,17193,1003.90625,225.5859375,-75.1953125,-0.03543018381548489,-0.07696902001294993,-0.010995574287564277,-1235,-1678,-1284,3884,313,100652
12:7:7.686,17194,998.046875,236.328125,-60.546875,-0.04276056667386108,-0.08918632477691024,-0.03298672286269283,-1237,-1682,-1292,3884,313,100652
12:7:7.707,17195,1000.0,238.28125,-50.78125,-0.06841690667817772,-0.08796459430051422,-0.06230825429619757,-1237,-1682,-1292,3884,313,100652
12:7:7.717,17196,1001.953125,221.6796875,-50.78125,-0.06597344572538566,-0.08552113334772216,-0.11239920382843484,-1237,-1682,-1292,3884,313,100652
12:7:7.738,17197,994.140625,215.8203125,-60.546875,-0.10629055144645469,-0.09651670763528641,-0.12583823906879116,-1237,-1682,-1292,3884,313,100652
12:7:7.759,17198,987.3046875,218.75,-59.5703125,-0.15149457907310784,-0.09773843811168245,-0.09162978572970232,-1237,-1682,-1292,3884,313,100652
12:7:7.779,17199,985.3515625,214.84375,-44.921875,-0.1869247628885927,-0.11728612573401895,-0.07208209810736582,-1234,-1678,-1289,3884,313,100652
12:7:7.790,17200,991.2109375,231.4453125,-34.1796875,-0.1954768762233649,-0.12828170002158323,-0.05009094953223726,-1234,-1678,-1289,3884,313,100652
12:7:7.810,17201,984.375,229.4921875,-42.96875,-0.20036379812894903,-0.13194689145077132,-0.05986479334340551,-1234,-1678,-1289,3884,313,100652
12:7:7.851,17202,984.375,235.3515625,-39.0625,-0.1710422666954443,-0.11972958668681102,-0.0635299847725936,-1234,-1678,-1289,3890,313,100650
12:7:7.872,17203,986.328125,236.328125,-41.9921875,-0.1038470904936626,-0.0989601685880785,-0.07941248096574201,-1230,-1680,-1276,3890,313,100650
12:7:7.883,17204,988.28125,215.8203125,-41.9921875,-0.0830776723949301,-0.1038470904936626,-0.05986479334340551,-1230,-1680,-1276,3890,313,100650
12:7:7.903,17205,984.375,211.9140625,-41.9921875,-0.14416419621473164,-0.0989601685880785,-0.04031710572106901,-1230,-1680,-1276,3890,313,100650
12:7:7.924,17206,985.3515625,227.5390625,-41.015625,-0.1710422666954443,-0.10629055144645469,-0.03420845333908886,-1230,-1680,-1276,3890,313,100650
12:7:7.944,17207,986.328125,236.328125,-34.1796875,-0.17715091907742447,-0.09773843811168245,-0.03054326190990077,-1230,-1680,-1276,3890,313,100650
12:7:7.955,17208,983.3984375,230.46875,-41.9921875,-0.1551597705022959,-0.09773843811168245,-0.04153883619746505,-1235,-1678,-1280,3890,313,100650
12:7:7.996,17209,989.2578125,229.4921875,-42.96875,-0.17715091907742447,-0.08185594191853407,-0.04642575810304917,-1235,-1678,-1280,3890,313,100650
12:7:8.16,17210,992.1875,232.421875,-47.8515625,-0.1869247628885927,-0.07452555906015788,-0.021991148575128554,-1235,-1678,-1280,3890,313,100650
12:7:8.37,17211,987.3046875,236.328125,-42.96875,-0.17470745812463243,-0.0635299847725936,-0.04153883619746505,-1235,-1678,-1280,3890,313,100650
12:7:8.47,17212,982.421875,241.2109375,-40.0390625,-0.1233947781159991,-0.07086036763096978,-0.039095375244672985,-1235,-1678,-1280,3890,313,100650
12:7:8.67,17213,977.5390625,229.4921875,-48.828125,-0.10629055144645469,-0.07330382858376185,-0.04520402762665313,-1235,-1676,-1273,3890,313,100650
12:7:8.88,17214,984.375,220.703125,-51.7578125,-0.1270599695451872,-0.08552113334772216,-0.0317649923862968,-1235,-1676,-1273,3890,313,100650
12:7:8.108,17215,984.375,228.515625,-51.7578125,-0.16249015336067207,-0.06230825429619757,-0.026878070480712675,-1235,-1676,-1273,3890,313,100650
12:7:8.119,17216,981.4453125,240.234375,-51.7578125,-0.15149457907310784,-0.07696902001294993,-0.004886921905584123,-1235,-1676,-1273,3890,313,100650
12:7:8.139,17217,982.421875,246.09375,-46.875,-0.12461650859239513,-0.07941248096574201,-0.04276056667386108,-1230,-1679,-1281,3890,313,100650
12:7:8.159,17218,983.3984375,232.421875,-51.7578125,-0.1038470904936626,-0.06597344572538566,-0.039095375244672985,-1230,-1679,-1281,3890,313,100650
12:7:8.180,17219,998.046875,230.46875,-53.7109375,-0.13683381335635544,-0.058643062867009474,-0.052534410485029326,-1230,-1679,-1281,3890,313,100650
12:7:8.201,17220,999.0234375,234.375,-53.7109375,-0.17837264955382048,-0.06841690667817772,-0.02809980095710871,-1230,-1679,-1281,3890,313,100650
12:7:8.211,17221,986.328125,240.234375,-44.921875,-0.1893682238413848,-0.06597344572538566,-0.026878070480712675,-1230,-1679,-1281,3890,313,100650
12:7:8.231,17222,980.46875,245.1171875,-49.8046875,-0.17470745812463243,-0.06963863715457375,-0.04398229715025711,-1236,-1678,-1284,3890,313,100650
12:7:8.273,17223,978.515625,240.234375,-51.7578125,-0.10629055144645469,-0.05986479334340551,-0.05619960191421742,-1236,-1678,-1284,3890,313,100650
12:7:8.283,17224,980.46875,230.46875,-56.640625,-0.0830776723949301,-0.06108652381980154,-0.05375614096142535,-1236,-1678,-1284,3890,313,100650
12:7:8.304,17225,980.46875,225.5859375,-58.59375,-0.10262536001726659,-0.07941248096574201,-0.039095375244672985,-1236,-1678,-1284,3890,313,100650
12:7:8.324,17226,980.46875,229.4921875,-54.6875,-0.1356120828799594,-0.07452555906015788,-0.025656340004316647,-1236,-1678,-1284,3890,313,100650
12:7:8.345,17227,988.28125,244.140625,-55.6640625,-0.1429424657383356,-0.08918632477691024,-0.02809980095710871,-1236,-1674,-1273,3890,313,100650
12:7:8.365,17228,989.2578125,249.0234375,-48.828125,-0.1233947781159991,-0.0867428638241182,-0.04642575810304917,-1236,-1674,-1273,3890,313,100650
12:7:8.375,17229,989.2578125,240.234375,-49.8046875,-0.08063421144213802,-0.06841690667817772,-0.06841690667817772,-1236,-1674,-1273,3890,313,100650
12:7:8.417,17230,983.3984375,223.6328125,-52.734375,-0.08063421144213802,-0.06841690667817772,-0.05742133239061345,-1236,-1674,-1273,3890,313,100650
12:7:8.438,17231,989.2578125,223.6328125,-45.8984375,-0.12095131716320705,-0.06230825429619757,-0.0317649923862968,-1234,-1675,-1272,3890,313,100650
12:7:8.448,17232,986.328125,230.46875,-44.921875,-0.14905111812031577,-0.08552113334772216,-0.019547687622336492,-1234,-1675,-1272,3890,313,100650
12:7:8.468,17233,981.4453125,225.5859375,-41.9921875,-0.1392772743091475,-0.07574728953655392,-0.014660765716752368,-1234,-1675,-1272,3890,313,100650
12:7:8.489,17234,979.4921875,241.2109375,-45.8984375,-0.1343903524035634,-0.07819075048934597,-0.01710422666954443,-1234,-1675,-1272,3890,313,100650
12:7:8.509,17235,984.375,238.28125,-48.828125,-0.1148426647812269,-0.06230825429619757,-0.026878070480712675,-1234,-1675,-1272,3890,313,100650
12:7:8.530,17236,989.2578125,231.4453125,-48.828125,-0.1075122819228507,-0.048869219055841226,-0.04031710572106901,-1235,-1673,-1270,3890,313,100650
12:7:8.540,17237,989.2578125,234.375,-52.734375,-0.11362093430483088,-0.048869219055841226,-0.03787364476827696,-1235,-1673,-1270,3890,313,100650
12:7:8.561,17238,985.3515625,241.2109375,-47.8515625,-0.13316862192716736,-0.06108652381980154,-0.029321531433504737,-1235,-1673,-1270,3890,313,100650
12:7:8.581,17239,990.234375,245.1171875,-44.921875,-0.11728612573401895,-0.06108652381980154,-0.03787364476827696,-1235,-1673,-1270,3890,313,100650
12:7:8.601,17240,988.28125,240.234375,-48.828125,-0.09285151620609834,-0.06108652381980154,-0.04031710572106901,-1235,-1673,-1270,3890,313,100650
12:7:8.623,17241,984.375,240.234375,-54.6875,-0.08918632477691024,-0.05742133239061345,-0.04153883619746505,-1228,-1677,-1268,3890,313,100650
12:7:8.633,17242,985.3515625,236.328125,-47.8515625,-0.09285151620609834,-0.06108652381980154,-0.03787364476827696,-1228,-1677,-1268,3890,313,100650
12:7:8.653,17243,984.375,232.421875,-42.96875,-0.10140362954087055,-0.0635299847725936,-0.03787364476827696,-1228,-1677,-1268,3890,313,100650
12:7:8.694,17244,995.1171875,231.4453125,-48.828125,-0.1111774733520388,-0.05986479334340551,-0.0158824961931484,-1228,-1677,-1268,3890,313,100650
12:7:8.704,17245,992.1875,239.2578125,-47.8515625,-0.11362093430483088,-0.06475171524898964,-0.010995574287564277,-1228,-1677,-1268,3890,313,100650
12:7:8.725,17246,979.4921875,242.1875,-51.7578125,-0.09285151620609834,-0.05742133239061345,-0.01832595714594046,-1231,-1674,-1268,3890,313,100650
12:7:8.746,17247,982.421875,233.3984375,-48.828125,-0.07086036763096978,-0.048869219055841226,-0.03787364476827696,-1231,-1674,-1268,3890,313,100650
12:7:8.767,17248,988.28125,237.3046875,-56.640625,-0.09285151620609834,-0.05619960191421742,-0.04642575810304917,-1231,-1674,-1268,3890,313,100650
12:7:8.787,17249,987.3046875,239.2578125,-52.734375,-0.10018189906447451,-0.05986479334340551,-0.0317649923862968,-1231,-1674,-1268,3890,313,100650
12:7:8.797,17250,986.328125,233.3984375,-51.7578125,-0.1075122819228507,-0.07941248096574201,-0.02809980095710871,-1231,-1676,-1275,3890,313,100650
12:7:8.839,17251,989.2578125,239.2578125,-47.8515625,-0.12950343049797927,-0.07330382858376185,-0.04276056667386108,-1231,-1676,-1275,3890,313,100650
12:7:8.859,17252,989.2578125,238.28125,-45.8984375,-0.1111774733520388,-0.07696902001294993,-0.03665191429188092,-1231,-1676,-1275,3896,313,100654
12:7:8.869,17253,990.234375,235.3515625,-43.9453125,-0.08552113334772216,-0.05619960191421742,-0.04642575810304917,-1231,-1676,-1275,3896,313,100654
12:7:8.890,17254,990.234375,223.6328125,-51.7578125,-0.11850785621041499,-0.06230825429619757,-0.05742133239061345,-1231,-1676,-1275,3896,313,100654
12:7:8.911,17255,986.328125,234.375,-47.8515625,-0.12217304763960309,-0.07208209810736582,-0.019547687622336492,-1226,-1682,-1277,3896,313,100654
12:7:8.932,17256,980.46875,243.1640625,-51.7578125,-0.09040805525330627,-0.06475171524898964,-0.0158824961931484,-1226,-1682,-1277,3896,313,100654
12:7:8.942,17257,981.4453125,236.328125,-45.8984375,-0.06963863715457375,-0.05619960191421742,-0.023212879051524585,-1226,-1682,-1277,3896,313,100654
12:7:8.963,17258,986.328125,229.4921875,-53.7109375,-0.09651670763528641,-0.058643062867009474,-0.03665191429188092,-1226,-1682,-1277,3896,313,100654
12:7:8.983,17259,987.3046875,228.515625,-52.734375,-0.10873401239924674,-0.06841690667817772,-0.023212879051524585,-1226,-1682,-1277,3896,313,100654
12:7:9.4,17260,985.3515625,233.3984375,-46.875,-0.1038470904936626,-0.0671951762017817,-0.013439035240356337,-1230,-1675,-1287,3896,313,100654
12:7:9.14,17261,984.375,236.328125,-49.8046875,-0.10506882097005865,-0.07574728953655392,-0.013439035240356337,-1230,-1675,-1287,3896,313,100654
12:7:9.34,17262,983.3984375,229.4921875,-50.78125,-0.0989601685880785,-0.06963863715457375,-0.01832595714594046,-1230,-1675,-1287,3896,313,100654
12:7:9.55,17263,987.3046875,235.3515625,-52.734375,-0.10506882097005865,-0.06475171524898964,-0.023212879051524585,-1230,-1675,-1287,3896,313,100654
12:7:9.75,17264,987.3046875,241.2109375,-53.7109375,-0.0952949771588904,-0.06597344572538566,-0.012217304763960306,-1230,-1681,-1283,3896,313,100654
12:7:9.106,17265,987.3046875,242.1875,-48.828125,-0.08552113334772216,-0.06597344572538566,-0.026878070480712675,-1230,-1681,-1283,3896,313,100654
12:7:9.127,17266,986.328125,235.3515625,-51.7578125,-0.09407324668249437,-0.05497787143782139,-0.05375614096142535,-1230,-1681,-1283,3896,313,100654
12:7:9.147,17267,983.3984375,236.328125,-55.6640625,-0.1148426647812269,-0.0635299847725936,-0.051312680008633295,-1230,-1681,-1283,3896,313,100654
12:7:9.168,17268,982.421875,241.2109375,-56.640625,-0.10873401239924674,-0.08185594191853407,-0.03054326190990077,-1230,-1681,-1283,3896,313,100654
12:7:9.188,17269,980.46875,242.1875,-51.7578125,-0.05986479334340551,-0.07208209810736582,-0.020769418098732523,-1233,-1678,-1266,3896,313,100654
12:7:9.199,17270,981.4453125,228.515625,-49.8046875,-0.06597344572538566,-0.07330382858376185,-0.03054326190990077,-1233,-1678,-1266,3896,313,100654
12:7:9.261,17271,984.375,232.421875,-50.78125,-0.1038470904936626,-0.07208209810736582,-0.026878070480712675,-1233,-1678,-1266,3896,313,100654
12:7:9.271,17272,979.4921875,239.2578125,-50.78125,-0.12950343049797927,-0.07696902001294993,-0.04276056667386108,-1233,-1678,-1266,3896,313,100654
12:7:9.292,17273,981.4453125,240.234375,-41.9921875,-0.0989601685880785,-0.06597344572538566,-0.04031710572106901,-1233,-1678,-1266,3896,313,100654
12:7:9.312,17274,982.421875,237.3046875,-41.015625,-0.09162978572970232,-0.07452555906015788,-0.051312680008633295,-1230,-1684,-1272,3896,313,100654
12:7:9.333,17275,983.3984375,230.46875,-47.8515625,-0.09407324668249437,-0.06108652381980154,-0.07696902001294993,-1230,-1684,-1272,3896,313,100654
12:7:9.343,17276,991.2109375,225.5859375,-48.828125,-0.1356120828799594,-0.06841690667817772,-0.05375614096142535,-1230,-1684,-1272,3896,313,100654
12:7:9.363,17277,993.1640625,232.421875,-40.0390625,-0.1551597705022959,-0.07696902001294993,-0.04642575810304917,-1230,-1684,-1272,3896,313,100654
12:7:9.384,17278,998.046875,240.234375,-39.0625,-0.14416419621473164,-0.07819075048934597,-0.051312680008633295,-1237,-1680,-1276,3896,313,100654
12:7:9.404,17279,988.28125,242.1875,-43.9453125,-0.12950343049797927,-0.06475171524898964,-0.06963863715457375,-1237,-1680,-1276,3896,313,100654
12:7:9.424,17280,982.421875,236.328125,-60.546875,-0.1111774733520388,-0.04153883619746505,-0.07086036763096978,-1237,-1680,-1276,3896,313,100654
12:7:9.434,17281,994.140625,237.3046875,-60.546875,-0.09407324668249437,-0.04520402762665313,-0.04153883619746505,-1237,-1680,-1276,3896,313,100654
12:7:9.455,17282,992.1875,231.4453125,-65.4296875,-0.11239920382843484,-0.07819075048934597,-0.048869219055841226,-1237,-1680,-1276,3896,313,100654
12:7:9.476,17283,989.2578125,231.4453125,-66.40625,-0.15638150097869194,-0.09407324668249437,-0.0476474885794452,-1231,-1678,-1262,3896,313,100654
12:7:9.496,17284,988.28125,234.375,-70.3125,-0.21258110289290938,-0.11728612573401895,-0.06230825429619757,-1231,-1678,-1262,3896,313,100654
12:7:9.506,17285,991.2109375,244.140625,-64.453125,-0.22602013813326569,-0.13194689145077132,-0.052534410485029326,-1231,-1678,-1262,3896,313,100654
12:7:9.527,17286,994.140625,243.1640625,-58.59375,-0.18325957145940464,-0.1270599695451872,-0.058643062867009474,-1231,-1678,-1262,3896,313,100654
12:7:9.547,17287,994.140625,234.375,-56.640625,-0.14538592669112765,-0.1343903524035634,-0.06841690667817772,-1231,-1678,-1262,3896,313,100654
12:7:9.567,17288,997.0703125,226.5625,-61.5234375,-0.15882496193148402,-0.1307251609743753,-0.058643062867009474,-1228,-1678,-1266,3896,313,100654
12:7:9.588,17289,998.046875,238.28125,-61.5234375,-0.15760323145508798,-0.1307251609743753,-0.039095375244672985,-1228,-1678,-1266,3896,313,100654
12:7:9.598,17290,991.2109375,240.234375,-65.4296875,-0.10506882097005865,-0.11850785621041499,-0.01710422666954443,-1228,-1678,-1266,3896,313,100654
12:7:9.618,17291,984.375,250.9765625,-69.3359375,-0.04642575810304917,-0.12950343049797927,-0.01832595714594046,-1228,-1678,-1266,3896,313,100654
12:7:9.639,17292,979.4921875,235.3515625,-76.171875,-0.013439035240356337,-0.11239920382843484,-0.0158824961931484,-1227,-1675,-1261,3896,313,100654
12:7:9.679,17293,992.1875,248.046875,-82.03125,-0.013439035240356337,-0.1270599695451872,-0.0158824961931484,-1227,-1675,-1261,3896,313,100654
12:7:9.689,17294,997.0703125,242.1875,-80.078125,-0.023212879051524585,-0.1429424657383356,-0.03054326190990077,-1227,-1675,-1261,3896,313,100654
12:7:9.710,17295,997.0703125,244.140625,-80.078125,-0.052534410485029326,-0.1661553447898602,-0.03543018381548489,-1227,-1675,-1261,3896,313,100654
12:7:9.730,17296,1000.0,248.046875,-77.1484375,-0.10506882097005865,-0.1954768762233649,-0.06230825429619757,-1227,-1675,-1261,3896,313,100654
12:7:9.751,17297,998.046875,243.1640625,-74.21875,-0.15149457907310784,-0.1954768762233649,-0.10140362954087055,-1230,-1679,-1262,3896,313,100654
12:7:9.761,17298,988.28125,238.28125,-75.1953125,-0.1893682238413848,-0.21746802479849348,-0.1148426647812269,-1230,-1679,-1262,3896,313,100654
12:7:9.782,17299,984.375,239.2578125,-71.2890625,-0.19181168479417682,-0.21258110289290938,-0.1429424657383356,-1230,-1679,-1262,3896,313,100654
12:7:9.802,17300,981.4453125,242.1875,-71.2890625,-0.18448130193580062,-0.21991148575128555,-0.14538592669112765,-1230,-1679,-1262,3896,313,100654
12:7:9.823,17301,972.65625,229.4921875,-75.1953125,-0.16004669240788005,-0.20647245051092922,-0.13316862192716736,-1230,-1679,-1262,3896,313,100654
12:7:9.833,17302,958.0078125,219.7265625,-76.171875,-0.15393804002589986,-0.2113593724165133,-0.1148426647812269,-1235,-1675,-1249,3884,313,100654
12:7:9.854,17303,969.7265625,231.4453125,-78.125,-0.16126842288427604,-0.20891591146372127,-0.07208209810736582,-1235,-1675,-1249,3884,313,100654
12:7:9.874,17304,974.609375,236.328125,-68.359375,-0.13805554383275148,-0.21991148575128555,-0.05497787143782139,-1235,-1675,-1249,3884,313,100654
12:7:9.895,17305,969.7265625,233.3984375,-64.453125,-0.14905111812031577,-0.2309070600388498,-0.03543018381548489,-1235,-1675,-1249,3884,313,100654
12:7:9.915,17306,967.7734375,240.234375,-60.546875,-0.18570303241219668,-0.2309070600388498,-0.0476474885794452,-1234,-1671,-1245,3884,313,100654
12:7:9.946,17307,971.6796875,242.1875,-63.4765625,-0.2186897552748895,-0.20158552860534507,-0.0671951762017817,-1234,-1671,-1245,3884,313,100654
12:7:9.966,17308,990.234375,250.0,-58.59375,-0.2186897552748895,-0.18570303241219668,-0.0635299847725936,-1234,-1671,-1245,3884,313,100654
12:7:9.987,17309,990.234375,250.9765625,-57.6171875,-0.2101376419401173,-0.17592918860102844,-0.06963863715457375,-1234,-1671,-1245,3884,313,100654
12:7:10.7,17310,985.3515625,235.3515625,-60.546875,-0.1734857276482364,-0.16249015336067207,-0.07696902001294993,-1234,-1671,-1245,3884,313,100654
12:7:10.18,17311,983.3984375,234.375,-61.5234375,-0.1893682238413848,-0.14416419621473164,-0.07696902001294993,-1226,-1669,-1251,3884,313,100654
12:7:10.38,17312,987.3046875,232.421875,-62.5,-0.1942551457469689,-0.12583823906879116,-0.05497787143782139,-1226,-1669,-1251,3884,313,100654
12:7:10.59,17313,992.1875,243.1640625,-63.4765625,-0.1820378409830086,-0.12095131716320705,-0.04153883619746505,-1226,-1669,-1251,3884,313,100654
12:7:10.90,17314,985.3515625,238.28125,-74.21875,-0.1734857276482364,-0.09407324668249437,-0.03543018381548489,-1226,-1669,-1251,3884,313,100654
12:7:10.110,17315,978.515625,239.2578125,-84.9609375,-0.197920337176157,-0.07819075048934597,-0.02809980095710871,-1226,-1669,-1251,3884,313,100654
12:7:10.131,17316,977.5390625,250.9765625,-83.0078125,-0.16004669240788005,-0.0867428638241182,-0.026878070480712675,-1235,-1669,-1244,3884,313,100654
12:7:10.152,17317,976.5625,237.3046875,-92.7734375,-0.14538592669112765,-0.09285151620609834,-0.02809980095710871,-1235,-1669,-1244,3884,313,100654
12:7:10.173,17318,982.421875,242.1875,-94.7265625,-0.18325957145940464,-0.10262536001726659,-0.013439035240356337,-1235,-1669,-1244,3884,313,100654
12:7:10.183,17319,985.3515625,248.046875,-98.6328125,-0.18814649336498873,-0.10629055144645469,-0.009773843811168246,-1235,-1669,-1244,3884,313,100654
12:7:10.203,17320,984.375,253.90625,-94.7265625,-0.1942551457469689,-0.12828170002158323,-0.01710422666954443,-1235,-1669,-1244,3884,313,100654
12:7:10.224,17321,985.3515625,242.1875,-95.703125,-0.21991148575128555,-0.1392772743091475,-0.04276056667386108,-1230,-1663,-1237,3884,313,100654
12:7:10.244,17322,985.3515625,236.328125,-97.65625,-0.27977627909469105,-0.1356120828799594,-0.07574728953655392,-1230,-1663,-1237,3884,313,100654
12:7:10.255,17323,978.515625,238.28125,-102.5390625,-0.3274237676741363,-0.14172073526193957,-0.06841690667817772,-1230,-1663,-1237,3884,313,100654
12:7:10.276,17324,982.421875,233.3984375,-101.5625,-0.3200933848157601,-0.16371188383706814,-0.052534410485029326,-1230,-1663,-1237,3884,313,100654
12:7:10.296,17325,980.46875,235.3515625,-100.5859375,-0.31887165433936404,-0.1478293876439197,-0.039095375244672985,-1233,-1665,-1247,3884,313,100654
12:7:10.317,17326,978.515625,237.3046875,-95.703125,-0.3262020371977402,-0.16493361431346415,-0.03054326190990077,-1233,-1665,-1247,3884,313,100654
12:7:10.327,17327,973.6328125,232.421875,-97.65625,-0.32253684576855207,-0.16371188383706814,-0.0317649923862968,-1233,-1665,-1247,3884,313,100654
12:7:10.368,17328,969.7265625,233.3984375,-98.6328125,-0.36896260387160124,-0.16004669240788005,-0.025656340004316647,-1233,-1665,-1247,3884,313,100654
12:7:10.389,17329,971.6796875,235.3515625,-93.75,-0.40072759625789806,-0.16859880574265224,-0.024434609527920613,-1233,-1665,-1247,3884,313,100654
12:7:10.409,17330,974.609375,240.234375,-95.703125,-0.41783182292744253,-0.16126842288427604,-0.024434609527920613,-1238,-1668,-1229,3884,313,100654
12:7:10.420,17331,959.9609375,240.234375,-91.796875,-0.4043927876870862,-0.1661553447898602,-0.0012217304763960308,-1238,-1668,-1229,3884,313,100654
12:7:10.440,17332,960.9375,239.2578125,-84.9609375,-0.4056145181634822,-0.1551597705022959,0.007330382858376184,-1238,-1668,-1229,3884,313,100654
12:7:10.461,17333,959.9609375,248.046875,-84.9609375,-0.41172317054546237,-0.1551597705022959,0.01710422666954443,-1238,-1668,-1229,3884,313,100654
12:7:10.482,17334,960.9375,256.8359375,-83.0078125,-0.39217548292312593,-0.1343903524035634,0.0317649923862968,-1238,-1668,-1229,3884,313,100654
12:7:10.513,17335,962.890625,257.8125,-83.984375,-0.37140606482439337,-0.11728612573401895,0.052534410485029326,-1235,-1664,-1236,3884,313,100654
12:7:10.533,17336,968.75,267.578125,-79.1015625,-0.3200933848157601,-0.0989601685880785,0.07452555906015788,-1235,-1664,-1236,3884,313,100654
12:7:10.554,17337,963.8671875,275.390625,-73.2421875,-0.2871066619530672,-0.07819075048934597,0.09162978572970232,-1235,-1664,-1236,3884,313,100654
12:7:10.574,17338,963.8671875,262.6953125,-76.171875,-0.21746802479849348,-0.058643062867009474,0.09040805525330627,-1235,-1664,-1236,3884,313,100654
12:7:10.584,17339,963.8671875,268.5546875,-79.1015625,-0.2211332162276816,-0.03054326190990077,0.11362093430483088,-1237,-1663,-1223,3884,313,100654
12:7:10.604,17340,967.7734375,282.2265625,-80.078125,-0.19303341527057283,0.003665191429188092,0.13683381335635544,-1237,-1663,-1223,3884,313,100654
12:7:10.625,17341,969.7265625,296.875,-90.8203125,-0.15149457907310784,0.0317649923862968,0.16982053621904827,-1237,-1663,-1223,3884,313,100654
12:7:10.645,17342,968.75,300.78125,-94.7265625,-0.058643062867009474,0.0317649923862968,0.1954768762233649,-1237,-1663,-1223,3884,313,100654
12:7:10.655,17343,979.4921875,291.015625,-103.515625,-0.06597344572538566,0.03420845333908886,0.15149457907310784,-1237,-1663,-1223,3884,313,100654
12:7:10.676,17344,983.3984375,291.9921875,-107.421875,-0.1307251609743753,0.025656340004316647,0.1111774733520388,-1241,-1672,-1231,3884,313,100654
12:7:10.696,17345,979.4921875,292.96875,-115.234375,-0.19181168479417682,0.010995574287564277,0.05375614096142535,-1241,-1672,-1231,3884,313,100654
12:7:10.717,17346,976.5625,293.9453125,-110.3515625,-0.24556782575560218,0.008552113334772215,-0.03420845333908886,-1241,-1672,-1231,3884,313,100654
12:7:10.737,17347,973.6328125,286.1328125,-114.2578125,-0.2675589743307307,0.007330382858376184,-0.09651670763528641,-1241,-1672,-1231,3884,313,100654
12:7:10.747,17348,962.890625,293.9453125,-124.0234375,-0.26267205242514663,0.009773843811168246,-0.13316862192716736,-1241,-1672,-1231,3884,313,100654
12:7:10.788,17349,952.1484375,270.5078125,-110.3515625,-0.2235766771804736,-0.0024434609527920616,-0.14172073526193957,-1238,-1672,-1239,3884,313,100654
12:7:10.809,17350,958.0078125,263.671875,-102.5390625,-0.22602013813326569,-0.014660765716752368,-0.1392772743091475,-1238,-1672,-1239,3884,313,100654
12:7:10.829,17351,967.7734375,262.6953125,-104.4921875,-0.21991148575128555,-0.03543018381548489,-0.1075122819228507,-1238,-1672,-1239,3884,313,100654
12:7:10.840,17352,978.515625,277.34375,-97.65625,-0.1734857276482364,-0.04398229715025711,-0.058643062867009474,-1238,-1672,-1239,3884,313,100652
12:7:10.860,17353,979.4921875,292.96875,-90.8203125,-0.07696902001294993,-0.03665191429188092,0.013439035240356337,-1234,-1670,-1231,3884,313,100652
12:7:10.881,17354,979.4921875,296.875,-92.7734375,0.05375614096142535,-0.006108652381980153,0.03665191429188092,-1234,-1670,-1231,3884,313,100652
12:7:10.902,17355,979.4921875,306.640625,-92.7734375,0.1466076571675237,0.014660765716752368,0.019547687622336492,-1234,-1670,-1231,3884,313,100652
12:7:10.933,17356,982.421875,299.8046875,-96.6796875,0.2186897552748895,0.03787364476827696,-0.0012217304763960308,-1234,-1670,-1231,3884,313,100652
12:7:10.953,17357,980.46875,297.8515625,-94.7265625,0.21746802479849348,0.0317649923862968,-0.019547687622336492,-1234,-1670,-1231,3884,313,100652
12:7:10.974,17358,967.7734375,292.96875,-98.6328125,0.1820378409830086,0.013439035240356337,-0.051312680008633295,-1230,-1664,-1221,3884,313,100652
12:7:10.984,17359,958.984375,295.8984375,-101.5625,0.14538592669112765,0.021991148575128554,-0.08185594191853407,-1230,-1664,-1221,3884,313,100652
12:7:11.4,17360,951.171875,297.8515625,-95.703125,0.10995574287564278,-0.003665191429188092,-0.0952949771588904,-1230,-1664,-1221,3884,313,100652
12:7:11.25,17361,954.1015625,301.7578125,-86.9140625,0.12217304763960309,0.0,-0.11362093430483088,-1230,-1664,-1221,3884,313,100652
12:7:11.45,17362,954.1015625,299.8046875,-85.9375,0.1392772743091475,0.003665191429188092,-0.1478293876439197,-1230,-1664,-1221,3884,313,100652
12:7:11.65,17363,956.0546875,282.2265625,-83.984375,0.1392772743091475,0.012217304763960306,-0.16004669240788005,-1235,-1671,-1232,3884,313,100652
12:7:11.75,17364,973.6328125,291.015625,-87.890625,0.1661553447898602,0.004886921905584123,-0.13805554383275148,-1235,-1671,-1232,3884,313,100652
12:7:11.95,17365,997.0703125,290.0390625,-79.1015625,0.2186897552748895,-0.003665191429188092,-0.11606439525762292,-1235,-1671,-1232,3884,313,100652
12:7:11.117,17366,1004.8828125,279.296875,-74.21875,0.2724458962363148,0.0012217304763960308,-0.11972958668681102,-1235,-1671,-1232,3884,313,100652
12:7:11.137,17367,999.0234375,281.25,-78.125,0.3017674276698196,-0.0024434609527920616,-0.1038470904936626,-1232,-1671,-1254,3884,313,100652
12:7:11.157,17368,1009.765625,280.2734375,-79.1015625,0.3469714552964728,0.003665191429188092,-0.10629055144645469,-1232,-1671,-1254,3884,313,100652
12:7:11.168,17369,1014.6484375,277.34375,-71.2890625,0.41172317054546237,0.0024434609527920616,-0.09162978572970232,-1232,-1671,-1254,3884,313,100652
12:7:11.280,17370,1012.6953125,271.484375,-74.21875,0.4715879638888679,0.0158824961931484,-0.09285151620609834,-1232,-1671,-1254,3884,313,100652
12:7:11.300,17371,1000.9765625,269.53125,-78.125,0.5619960191421741,0.010995574287564277,-0.07330382858376185,-1232,-1671,-1254,3884,313,100652
12:7:11.320,17372,1000.0,264.6484375,-82.03125,0.6169738905799955,0.0012217304763960308,-0.058643062867009474,-1230,-1669,-1253,3884,313,100652
12:7:11.331,17373,983.3984375,251.953125,-85.9375,0.5962044724812631,-0.009773843811168246,-0.05986479334340551,-1230,-1669,-1253,3884,313,100652
12:7:11.351,17374,983.3984375,251.953125,-84.9609375,0.4838052686528282,-0.03054326190990077,-0.1038470904936626,-1230,-1669,-1253,3884,313,100652
12:7:11.372,17375,974.609375,245.1171875,-80.078125,0.40072759625789806,-0.051312680008633295,-0.1710422666954443,-1230,-1669,-1253,3884,313,100652
12:7:11.392,17376,972.65625,228.515625,-70.3125,0.32498030672134415,-0.08185594191853407,-0.238237442897226,-1230,-1669,-1253,3884,313,100652
12:7:11.402,17377,968.75,213.8671875,-62.5,0.2113593724165133,-0.08552113334772216,-0.2724458962363148,-1232,-1672,-1253,3884,313,100652
12:7:11.422,17378,974.609375,206.0546875,-64.453125,0.10018189906447451,-0.0867428638241182,-0.3017674276698196,-1232,-1672,-1253,3884,313,100652
12:7:11.443,17379,991.2109375,204.1015625,-57.6171875,0.08918632477691024,-0.06841690667817772,-0.3042108886226117,-1232,-1672,-1253,3884,313,100652
12:7:11.464,17380,1000.9765625,207.03125,-52.734375,0.1038470904936626,-0.05497787143782139,-0.2614503219487506,-1232,-1672,-1253,3884,313,100652
12:7:11.484,17381,999.0234375,209.9609375,-60.546875,0.16126842288427604,-0.03665191429188092,-0.20158552860534507,-1228,-1668,-1253,3884,313,100652
12:7:11.494,17382,988.28125,194.3359375,-66.40625,0.20891591146372127,-0.019547687622336492,-0.15882496193148402,-1228,-1668,-1253,3884,313,100652
12:7:11.515,17383,988.28125,193.359375,-68.359375,0.20036379812894903,-0.020769418098732523,-0.14049900478554353,-1228,-1668,-1253,3884,313,100652
12:7:11.536,17384,985.3515625,194.3359375,-69.3359375,0.18570303241219668,-0.019547687622336492,-0.0952949771588904,-1228,-1668,-1253,3884,313,100652
12:7:11.557,17385,984.375,189.453125,-79.1015625,0.17470745812463243,-0.021991148575128554,-0.07208209810736582,-1228,-1668,-1253,3884,313,100652
12:7:11.567,17386,987.3046875,189.453125,-77.1484375,0.1075122819228507,-0.04153883619746505,-0.04520402762665313,-1228,-1661,-1261,3884,313,100652
12:7:11.587,17387,978.515625,195.3125,-80.078125,0.029321531433504737,-0.04031710572106901,-0.051312680008633295,-1228,-1661,-1261,3884,313,100652
12:7:11.608,17388,977.5390625,192.3828125,-81.0546875,0.0012217304763960308,-0.02809980095710871,-0.04398229715025711,-1228,-1661,-1261,3884,313,100652
12:7:11.628,17389,981.4453125,204.1015625,-81.0546875,-0.02809980095710871,-0.03543018381548489,-0.0158824961931484,-1228,-1661,-1261,3884,313,100652
12:7:11.649,17390,990.234375,204.1015625,-81.0546875,-0.006108652381980153,-0.04276056667386108,0.024434609527920613,-1228,-1661,-1261,3884,313,100652
12:7:11.659,17391,994.140625,208.984375,-83.0078125,-0.020769418098732523,-0.04276056667386108,0.05986479334340551,-1233,-1665,-1264,3884,313,100652
12:7:11.680,17392,991.2109375,232.421875,-87.890625,-0.029321531433504737,-0.029321531433504737,0.0671951762017817,-1233,-1665,-1264,3884,313,100652
12:7:11.700,17393,988.28125,237.3046875,-85.9375,-0.05742133239061345,-0.029321531433504737,0.06108652381980154,-1233,-1665,-1264,3884,313,100652
12:7:11.721,17394,985.3515625,233.3984375,-95.703125,-0.08918632477691024,-0.0158824961931484,0.04642575810304917,-1233,-1665,-1264,3884,313,100652
12:7:11.731,17395,974.609375,234.375,-92.7734375,-0.12828170002158323,-0.04642575810304917,0.052534410485029326,-1233,-1665,-1264,3884,313,100652
12:7:11.751,17396,958.984375,243.1640625,-99.609375,-0.16737707526625623,-0.06963863715457375,0.051312680008633295,-1231,-1668,-1260,3884,313,100652
12:7:11.772,17397,950.1953125,236.328125,-103.515625,-0.238237442897226,-0.08796459430051422,0.012217304763960306,-1231,-1668,-1260,3884,313,100652
12:7:11.793,17398,958.0078125,229.4921875,-102.5390625,-0.3824016391119576,-0.1356120828799594,-0.019547687622336492,-1231,-1668,-1260,3884,313,100652
12:7:11.813,17399,969.7265625,222.65625,-91.796875,-0.515570261039125,-0.16249015336067207,-0.0671951762017817,-1231,-1668,-1260,3884,313,100652
12:7:11.823,17400,976.5625,228.515625,-79.1015625,-0.6352998477259361,-0.18814649336498873,-0.0830776723949301,-1235,-1669,-1258,3884,313,100652
12:7:11.843,17401,983.3984375,229.4921875,-75.1953125,-0.6743952229706089,-0.20158552860534507,-0.09773843811168245,-1235,-1669,-1258,3884,313,100652
12:7:11.864,17402,1003.90625,235.3515625,-63.4765625,-0.6572909963010646,-0.1820378409830086,-0.07941248096574201,-1235,-1669,-1258,3890,313,100652
12:7:11.884,17403,1012.6953125,242.1875,-64.453125,-0.560774288665778,-0.15882496193148402,-0.01710422666954443,-1235,-1669,-1258,3890,313,100652
12:7:11.904,17404,1005.859375,257.8125,-68.359375,-0.4398229715025711,-0.11239920382843484,0.0158824961931484,-1235,-1669,-1258,3890,313,100652
12:7:11.914,17405,996.09375,250.9765625,-67.3828125,-0.3139847324337799,-0.09285151620609834,0.058643062867009474,-1233,-1663,-1263,3890,313,100652
12:7:11.935,17406,986.328125,259.765625,-78.125,-0.2431243648028101,-0.05619960191421742,0.10018189906447451,-1233,-1663,-1263,3890,313,100652
12:7:11.956,17407,972.65625,267.578125,-90.8203125,-0.1820378409830086,-0.04642575810304917,0.13805554383275148,-1233,-1663,-1263,3890,313,100652
12:7:11.977,17408,961.9140625,278.3203125,-94.7265625,-0.1466076571675237,-0.048869219055841226,0.14905111812031577,-1233,-1663,-1263,3890,313,100652
12:7:11.987,17409,955.078125,280.2734375,-94.7265625,-0.11850785621041499,-0.06475171524898964,0.1478293876439197,-1233,-1663,-1263,3890,313,100652
12:7:12.7,17410,963.8671875,282.2265625,-105.46875,-0.1343903524035634,-0.08063421144213802,0.14538592669112765,-1232,-1665,-1256,3890,313,100652
12:7:12.28,17411,966.796875,290.0390625,-97.65625,-0.15760323145508798,-0.10018189906447451,0.1233947781159991,-1232,-1665,-1256,3890,313,100652
12:7:12.48,17412,973.6328125,297.8515625,-97.65625,-0.20647245051092922,-0.11239920382843484,0.12217304763960309,-1232,-1665,-1256,3890,313,100652
12:7:12.58,17413,982.421875,301.7578125,-90.8203125,-0.23945917337362205,-0.10995574287564278,0.06597344572538566,-1232,-1665,-1256,3890,313,100652
12:7:12.79,17414,975.5859375,309.5703125,-97.65625,-0.2211332162276816,-0.11606439525762292,0.026878070480712675,-1238,-1672,-1241,3890,313,100652
12:7:12.100,17415,979.4921875,302.734375,-85.9375,-0.18570303241219668,-0.10873401239924674,0.009773843811168246,-1238,-1672,-1241,3890,313,100652
12:7:12.121,17416,978.515625,295.8984375,-84.9609375,-0.18448130193580062,-0.09285151620609834,-0.04642575810304917,-1238,-1672,-1241,3890,313,100652
12:7:12.131,17417,976.5625,286.1328125,-85.9375,-0.18814649336498873,-0.10140362954087055,-0.06963863715457375,-1238,-1672,-1241,3890,313,100652
12:7:12.151,17418,980.46875,296.875,-89.84375,-0.16126842288427604,-0.07696902001294993,-0.08185594191853407,-1238,-1672,-1241,3890,313,100652
12:7:12.193,17419,981.4453125,288.0859375,-91.796875,-0.12217304763960309,-0.06963863715457375,-0.05742133239061345,-1225,-1672,-1244,3890,313,100652
12:7:12.213,17420,979.4921875,284.1796875,-95.703125,-0.09162978572970232,-0.07086036763096978,-0.06230825429619757,-1225,-1672,-1244,3890,313,100652
12:7:12.223,17421,976.5625,260.7421875,-96.6796875,-0.11239920382843484,-0.09162978572970232,-0.07941248096574201,-1225,-1672,-1244,3890,313,100652
12:7:12.244,17422,985.3515625,248.046875,-91.796875,-0.18814649336498873,-0.11606439525762292,-0.11239920382843484,-1225,-1672,-1244,3890,313,100652
12:7:12.264,17423,979.4921875,253.90625,-90.8203125,-0.2431243648028101,-0.12461650859239513,-0.11362093430483088,-1225,-1672,-1244,3890,313,100652
12:7:12.285,17424,976.5625,245.1171875,-86.9140625,-0.2712241657599188,-0.11850785621041499,-0.13683381335635544,-1232,-1669,-1254,3890,313,100652
12:7:12.306,17425,978.515625,240.234375,-83.984375,-0.2883283924294633,-0.10018189906447451,-0.16004669240788005,-1232,-1669,-1254,3890,313,100652
12:7:12.316,17426,980.46875,236.328125,-82.03125,-0.2956587752878394,-0.09162978572970232,-0.16004669240788005,-1232,-1669,-1254,3890,313,100652
12:7:12.336,17427,983.3984375,236.328125,-77.1484375,-0.2614503219487506,-0.06108652381980154,-0.13805554383275148,-1232,-1669,-1254,3890,313,100652
12:7:12.357,17428,963.8671875,232.421875,-84.9609375,-0.2138028333693054,-0.04031710572106901,-0.1038470904936626,-1235,-1658,-1247,3890,313,100652
12:7:12.378,17429,946.2890625,233.3984375,-89.84375,-0.15882496193148402,-0.020769418098732523,-0.07208209810736582,-1235,-1658,-1247,3890,313,100652
12:7:12.388,17430,937.5,239.2578125,-93.75,-0.0989601685880785,-0.013439035240356337,0.003665191429188092,-1235,-1658,-1247,3890,313,100652
12:7:12.408,17431,948.2421875,252.9296875,-93.75,-0.020769418098732523,0.0,0.04520402762665313,-1235,-1658,-1247,3890,313,100652
12:7:12.428,17432,970.703125,250.9765625,-95.703125,-0.004886921905584123,0.013439035240356337,0.05742133239061345,-1235,-1658,-1247,3890,313,100652
12:7:12.469,17433,977.5390625,278.3203125,-98.6328125,0.004886921905584123,0.014660765716752368,0.08796459430051422,-1234,-1664,-1243,3890,313,100652
12:7:12.479,17434,979.4921875,290.0390625,-105.46875,0.06597344572538566,0.012217304763960306,0.10140362954087055,-1234,-1664,-1243,3890,313,100652
12:7:12.499,17435,986.328125,293.9453125,-102.5390625,0.1356120828799594,0.021991148575128554,0.12217304763960309,-1234,-1664,-1243,3890,313,100652
12:7:12.519,17436,988.28125,303.7109375,-101.5625,0.14172073526193957,0.0,0.12583823906879116,-1234,-1664,-1243,3890,313,100652
12:7:12.610,17437,985.3515625,313.4765625,-104.4921875,0.15760323145508798,-0.0012217304763960308,0.1148426647812269,-1234,-1664,-1243,3890,313,100652
12:7:12.630,17438,980.46875,306.640625,-104.4921875,0.1661553447898602,-0.008552113334772215,0.09040805525330627,-1238,-1672,-1234,3890,313,100652
12:7:12.651,17439,979.4921875,309.5703125,-113.28125,0.16249015336067207,-0.020769418098732523,0.07208209810736582,-1238,-1672,-1234,3890,313,100652
12:7:12.661,17440,981.4453125,319.3359375,-108.3984375,0.16982053621904827,-0.03298672286269283,0.0476474885794452,-1238,-1672,-1234,3890,313,100652
12:7:12.682,17441,972.65625,323.2421875,-104.4921875,0.17226399717184035,-0.04276056667386108,0.025656340004316647,-1238,-1672,-1234,3890,313,100652
12:7:12.702,17442,959.9609375,314.453125,-109.375,0.17837264955382048,-0.05497787143782139,-0.02809980095710871,-1238,-1675,-1242,3890,313,100652
12:7:12.723,17443,961.9140625,304.6875,-109.375,0.11362093430483088,-0.08429940287132612,-0.08185594191853407,-1238,-1675,-1242,3890,313,100652
12:7:12.733,17444,979.4921875,302.734375,-101.5625,0.06108652381980154,-0.10629055144645469,-0.1233947781159991,-1238,-1675,-1242,3890,313,100652
12:7:12.753,17445,982.421875,285.15625,-86.9140625,0.03420845333908886,-0.11239920382843484,-0.1661553447898602,-1238,-1675,-1242,3890,313,100652
12:7:12.774,17446,984.375,279.296875,-88.8671875,-0.020769418098732523,-0.11362093430483088,-0.18814649336498873,-1238,-1675,-1242,3890,313,100652
12:7:12.794,17447,996.09375,283.203125,-85.9375,-0.010995574287564277,-0.10018189906447451,-0.2076941809873252,-1234,-1672,-1256,3890,313,100652
12:7:12.815,17448,1003.90625,281.25,-88.8671875,0.06108652381980154,-0.08796459430051422,-0.2076941809873252,-1234,-1672,-1256,3890,313,100652
12:7:12.825,17449,990.234375,265.625,-92.7734375,0.14416419621473164,-0.08185594191853407,-0.1954768762233649,-1234,-1672,-1256,3890,313,100652
12:7:12.846,17450,983.3984375,250.9765625,-95.703125,0.17470745812463243,-0.07330382858376185,-0.20891591146372127,-1234,-1672,-1256,3890,313,100652
12:7:12.866,17451,976.5625,239.2578125,-101.5625,0.15882496193148402,-0.07086036763096978,-0.2345722514680379,-1234,-1672,-1256,3890,313,100652
12:7:12.887,17452,976.5625,229.4921875,-102.5390625,0.12217304763960309,-0.09651670763528641,-0.2504547476611863,-1225,-1667,-1253,3884,313,100655
12:7:12.897,17453,969.7265625,213.8671875,-97.65625,0.07941248096574201,-0.10629055144645469,-0.2675589743307307,-1225,-1667,-1253,3884,313,100655
12:7:12.918,17454,971.6796875,204.1015625,-96.6796875,0.021991148575128554,-0.11728612573401895,-0.2675589743307307,-1225,-1667,-1253,3884,313,100655
12:7:12.938,17455,977.5390625,202.1484375,-90.8203125,-0.0158824961931484,-0.12828170002158323,-0.24068090385001806,-1225,-1667,-1253,3884,313,100655
12:7:12.959,17456,983.3984375,195.3125,-85.9375,-0.06597344572538566,-0.13194689145077132,-0.23579398194443396,-1232,-1666,-1239,3884,313,100655
12:7:12.979,17457,984.375,194.3359375,-79.1015625,-0.09773843811168245,-0.1429424657383356,-0.2138028333693054,-1232,-1666,-1239,3884,313,100655
12:7:12.989,17458,989.2578125,188.4765625,-74.21875,-0.10873401239924674,-0.1307251609743753,-0.197920337176157,-1232,-1666,-1239,3884,313,100655
12:7:13.10,17459,980.46875,192.3828125,-76.171875,-0.10873401239924674,-0.10873401239924674,-0.15638150097869194,-1232,-1666,-1239,3884,313,100655
12:7:13.30,17460,974.609375,195.3125,-78.125,-0.07574728953655392,-0.09407324668249437,-0.0830776723949301,-1232,-1666,-1239,3884,313,100655
12:7:13.51,17461,968.75,197.265625,-76.171875,-0.04642575810304917,-0.08063421144213802,-0.0476474885794452,-1231,-1653,-1248,3884,313,100655
12:7:13.61,17462,971.6796875,199.21875,-77.1484375,-0.03420845333908886,-0.07330382858376185,-0.013439035240356337,-1231,-1653,-1248,3884,313,100655
12:7:13.83,17463,976.5625,195.3125,-81.0546875,-0.1038470904936626,-0.07208209810736582,0.008552113334772215,-1231,-1653,-1248,3884,313,100655
12:7:13.103,17464,980.46875,201.171875,-79.1015625,-0.17959438003021652,-0.0671951762017817,0.03054326190990077,-1231,-1653,-1248,3884,313,100655
12:7:13.123,17465,974.609375,212.890625,-85.9375,-0.2309070600388498,-0.07941248096574201,0.03420845333908886,-1231,-1653,-1248,3884,313,100655
12:7:13.134,17466,978.515625,227.5390625,-83.0078125,-0.23579398194443396,-0.06108652381980154,0.05375614096142535,-1226,-1656,-1251,3884,313,100655
12:7:13.154,17467,982.421875,232.421875,-86.9140625,-0.2296853295624538,-0.05742133239061345,0.07941248096574201,-1226,-1656,-1251,3884,313,100655
12:7:13.175,17468,983.3984375,239.2578125,-85.9375,-0.2431243648028101,-0.051312680008633295,0.08552113334772216,-1226,-1656,-1251,3884,313,100655
12:7:13.196,17469,980.46875,250.0,-87.890625,-0.22724186860966175,-0.06230825429619757,0.10506882097005865,-1226,-1656,-1251,3884,313,100655
12:7:13.216,17470,981.4453125,256.8359375,-94.7265625,-0.23701571242082997,-0.048869219055841226,0.0989601685880785,-1226,-1656,-1251,3884,313,100655
12:7:13.227,17471,976.5625,263.671875,-94.7265625,-0.2211332162276816,-0.05497787143782139,0.1148426647812269,-1230,-1654,-1249,3884,313,100655
12:7:13.247,17472,979.4921875,268.5546875,-99.609375,-0.2076941809873252,-0.052534410485029326,0.14416419621473164,-1230,-1654,-1249,3884,313,100655
12:7:13.268,17473,975.5859375,279.296875,-99.609375,-0.1954768762233649,-0.04398229715025711,0.1502728485967118,-1230,-1654,-1249,3884,313,100655
12:7:13.288,17474,975.5859375,291.9921875,-104.4921875,-0.17226399717184035,-0.058643062867009474,0.16859880574265224,-1230,-1654,-1249,3884,313,100655
12:7:13.298,17475,977.5390625,298.828125,-100.5859375,-0.16493361431346415,-0.06475171524898964,0.14172073526193957,-1233,-1663,-1251,3884,313,100655
12:7:13.319,17476,972.65625,296.875,-104.4921875,-0.17592918860102844,-0.052534410485029326,0.11362093430483088,-1233,-1663,-1251,3884,313,100655
12:7:13.339,17477,960.9375,300.78125,-107.421875,-0.2113593724165133,-0.05986479334340551,0.08552113334772216,-1233,-1663,-1251,3884,313,100655
12:7:13.360,17478,961.9140625,304.6875,-111.328125,-0.21746802479849348,-0.058643062867009474,0.058643062867009474,-1233,-1663,-1251,3884,313,100655
12:7:13.380,17479,965.8203125,307.6171875,-100.5859375,-0.19181168479417682,-0.07208209810736582,0.03787364476827696,-1233,-1663,-1251,3884,313,100655
12:7:13.391,17480,970.703125,294.921875,-103.515625,-0.18448130193580062,-0.08429940287132612,0.025656340004316647,-1228,-1665,-1254,3884,313,100655
12:7:13.411,17481,965.8203125,297.8515625,-102.5390625,-0.2150245638457014,-0.10262536001726659,0.0012217304763960308,-1228,-1665,-1254,3884,313,100655
12:7:13.452,17482,970.703125,296.875,-101.5625,-0.24801128670839426,-0.09773843811168245,-0.03543018381548489,-1228,-1665,-1254,3884,313,100655
12:7:13.463,17483,980.46875,298.828125,-93.75,-0.24068090385001806,-0.09285151620609834,-0.052534410485029326,-1228,-1665,-1254,3884,313,100655
12:7:13.484,17484,974.609375,289.0625,-95.703125,-0.2150245638457014,-0.08918632477691024,-0.07330382858376185,-1228,-1665,-1254,3884,313,100655
12:7:13.504,17485,971.6796875,273.4375,-95.703125,-0.24556782575560218,-0.09162978572970232,-0.10629055144645469,-1232,-1668,-1241,3884,313,100655
12:7:13.525,17486,972.65625,261.71875,-85.9375,-0.28344147052387914,-0.09285151620609834,-0.1343903524035634,-1232,-1668,-1241,3884,313,100655
12:7:13.546,17487,977.5390625,264.6484375,-87.890625,-0.2846632010002752,-0.1038470904936626,-0.14538592669112765,-1232,-1668,-1241,3884,313,100655
12:7:13.556,17488,976.5625,252.9296875,-85.9375,-0.2846632010002752,-0.09407324668249437,-0.15760323145508798,-1232,-1668,-1241,3884,313,100655
12:7:13.598,17489,979.4921875,244.140625,-83.984375,-0.2858849314766712,-0.09040805525330627,-0.12950343049797927,-1231,-1667,-1251,3884,313,100655
12:7:13.618,17490,978.515625,236.328125,-81.0546875,-0.3127630019573839,-0.08796459430051422,-0.12583823906879116,-1231,-1667,-1251,3884,313,100655
12:7:13.628,17491,984.375,244.140625,-82.03125,-0.32253684576855207,-0.08185594191853407,-0.1270599695451872,-1231,-1667,-1251,3884,313,100655
12:7:13.649,17492,987.3046875,234.375,-81.0546875,-0.3090978105281958,-0.07330382858376185,-0.12461650859239513,-1231,-1667,-1251,3884,313,100655
12:7:13.669,17493,992.1875,233.3984375,-83.0078125,-0.2919935838586513,-0.05742133239061345,-0.1038470904936626,-1231,-1667,-1251,3884,313,100655
12:7:13.690,17494,994.140625,225.5859375,-87.890625,-0.27611108766550296,-0.06597344572538566,-0.07819075048934597,-1228,-1661,-1242,3884,313,100655
12:7:13.710,17495,994.140625,233.3984375,-88.8671875,-0.27733281814189903,-0.06230825429619757,-0.05009094953223726,-1228,-1661,-1242,3884,313,100655
12:7:13.720,17496,989.2578125,232.421875,-91.796875,-0.2675589743307307,-0.058643062867009474,-0.021991148575128554,-1228,-1661,-1242,3884,313,100655
12:7:13.741,17497,987.3046875,236.328125,-95.703125,-0.23945917337362205,-0.048869219055841226,-0.0024434609527920616,-1228,-1661,-1242,3884,313,100655
12:7:13.762,17498,984.375,239.2578125,-101.5625,-0.22602013813326569,-0.06963863715457375,0.03543018381548489,-1228,-1661,-1242,3884,313,100655
12:7:13.784,17499,987.3046875,248.046875,-99.609375,-0.1905899543177808,-0.07696902001294993,0.06841690667817772,-1229,-1657,-1235,3884,313,100655
12:7:13.794,17500,975.5859375,248.046875,-92.7734375,-0.15638150097869194,-0.08429940287132612,0.0830776723949301,-1229,-1657,-1235,3884,313,100655
12:7:13.814,17501,969.7265625,258.7890625,-98.6328125,-0.14172073526193957,-0.08918632477691024,0.11239920382843484,-1229,-1657,-1235,3884,313,100655
12:7:13.835,17502,970.703125,266.6015625,-92.7734375,-0.13194689145077132,-0.08429940287132612,0.12461650859239513,-1229,-1657,-1235,3890,313,100651
12:7:13.865,17503,971.6796875,277.34375,-92.7734375,-0.11972958668681102,-0.09162978572970232,0.11972958668681102,-1235,-1661,-1249,3890,313,100651
12:7:13.885,17504,974.609375,278.3203125,-89.84375,-0.1270599695451872,-0.09162978572970232,0.11362093430483088,-1235,-1661,-1249,3890,313,100651
12:7:13.906,17505,975.5859375,278.3203125,-87.890625,-0.16982053621904827,-0.09407324668249437,0.07574728953655392,-1235,-1661,-1249,3890,313,100651
12:7:13.926,17506,975.5859375,282.2265625,-88.8671875,-0.20402898955813717,-0.09651670763528641,0.05375614096142535,-1235,-1661,-1249,3890,313,100651
12:7:13.947,17507,973.6328125,291.9921875,-87.890625,-0.2419026343264141,-0.08185594191853407,0.006108652381980153,-1235,-1661,-1249,3890,313,100651
12:7:13.957,17508,955.078125,288.0859375,-85.9375,-0.2651155133779387,-0.05009094953223726,-0.03298672286269283,-1235,-1664,-1245,3890,313,100651
12:7:13.978,17509,951.171875,295.8984375,-89.84375,-0.21746802479849348,-0.04642575810304917,-0.058643062867009474,-1235,-1664,-1245,3890,313,100651
12:7:14.19,17510,962.890625,283.203125,-86.9140625,-0.1661553447898602,-0.03420845333908886,-0.06963863715457375,-1235,-1664,-1245,3890,313,100651
12:7:14.29,17511,971.6796875,280.2734375,-87.890625,-0.11362093430483088,-0.024434609527920613,-0.0635299847725936,-1235,-1664,-1245,3890,313,100651
12:7:14.50,17512,978.515625,274.4140625,-97.65625,-0.09285151620609834,-0.003665191429188092,-0.04276056667386108,-1235,-1664,-1245,3890,313,100651
12:7:14.70,17513,983.3984375,284.1796875,-104.4921875,-0.024434609527920613,-0.012217304763960306,0.021991148575128554,-1227,-1669,-1228,3890,313,100651
12:7:14.91,17514,971.6796875,303.7109375,-106.4453125,0.0635299847725936,-0.003665191429188092,0.0635299847725936,-1227,-1669,-1228,3890,313,100651
12:7:14.112,17515,955.078125,307.6171875,-105.46875,0.15393804002589986,-0.01832595714594046,0.0952949771588904,-1227,-1669,-1228,3890,313,100651
12:7:14.122,17516,956.0546875,306.640625,-97.65625,0.16371188383706814,-0.019547687622336492,0.05619960191421742,-1227,-1669,-1228,3890,313,100651
12:7:14.142,17517,948.2421875,298.828125,-100.5859375,0.11728612573401895,-0.020769418098732523,0.013439035240356337,-1232,-1671,-1244,3890,313,100651
12:7:14.163,17518,946.2890625,306.640625,-97.65625,0.06230825429619757,-0.024434609527920613,-0.029321531433504737,-1232,-1671,-1244,3890,313,100651
12:7:14.184,17519,953.125,310.546875,-92.7734375,0.03298672286269283,-0.03420845333908886,-0.05497787143782139,-1232,-1671,-1244,3890,313,100651
12:7:14.194,17520,976.5625,306.640625,-88.8671875,0.0317649923862968,-0.03420845333908886,-0.06230825429619757,-1232,-1671,-1244,3890,313,100651
12:7:14.215,17521,975.5859375,306.640625,-80.078125,-0.009773843811168246,-0.039095375244672985,-0.11239920382843484,-1232,-1671,-1244,3890,313,100651
12:7:14.236,17522,973.6328125,301.7578125,-85.9375,-0.03420845333908886,-0.0635299847725936,-0.1356120828799594,-1232,-1675,-1244,3890,313,100651
12:7:14.257,17523,975.5859375,294.921875,-83.984375,-0.03420845333908886,-0.04031710572106901,-0.17226399717184035,-1232,-1675,-1244,3890,313,100651
12:7:14.288,17524,991.2109375,288.0859375,-74.21875,-0.008552113334772215,-0.05497787143782139,-0.17959438003021652,-1232,-1675,-1244,3890,313,100651
12:7:14.308,17525,998.046875,290.0390625,-73.2421875,0.025656340004316647,-0.05619960191421742,-0.17715091907742447,-1232,-1675,-1244,3890,313,100651
12:7:14.328,17526,1015.625,294.921875,-75.1953125,0.08063421144213802,-0.0635299847725936,-0.16859880574265224,-1232,-1675,-1244,3890,313,100651
12:7:14.339,17527,1013.671875,281.25,-76.171875,0.18081611050661253,-0.04153883619746505,-0.13805554383275148,-1232,-1670,-1249,3890,313,100651
12:7:14.359,17528,1000.9765625,281.25,-83.0078125,0.24923301718479027,-0.03420845333908886,-0.11972958668681102,-1232,-1670,-1249,3890,313,100651
12:7:14.380,17529,980.46875,273.4375,-85.9375,0.2858849314766712,-0.03543018381548489,-0.09773843811168245,-1232,-1670,-1249,3890,313,100651
12:7:14.400,17530,958.0078125,259.765625,-81.0546875,0.2846632010002752,-0.03420845333908886,-0.1038470904936626,-1232,-1670,-1249,3890,313,100651
12:7:14.431,17531,958.0078125,259.765625,-85.9375,0.22602013813326569,-0.04153883619746505,-0.13316862192716736,-1230,-1663,-1254,3890,313,100651
12:7:14.452,17532,964.84375,262.6953125,-84.9609375,0.1942551457469689,-0.05497787143782139,-0.1356120828799594,-1230,-1663,-1254,3890,313,100651
12:7:14.472,17533,972.65625,255.859375,-83.0078125,0.17226399717184035,-0.051312680008633295,-0.15638150097869194,-1230,-1663,-1254,3890,313,100651
12:7:14.493,17534,983.3984375,254.8828125,-79.1015625,0.16126842288427604,-0.05497787143782139,-0.1710422666954443,-1230,-1663,-1254,3890,313,100651
12:7:14.503,17535,988.28125,250.0,-79.1015625,0.17592918860102844,-0.06108652381980154,-0.17470745812463243,-1230,-1663,-1254,3890,313,100651
12:7:14.523,17536,988.28125,250.9765625,-79.1015625,0.1734857276482364,-0.05375614096142535,-0.16371188383706814,-1227,-1667,-1256,3890,313,100651
12:7:14.544,17537,980.46875,241.2109375,-84.9609375,0.18570303241219668,-0.05742133239061345,-0.15149457907310784,-1227,-1667,-1256,3890,313,100651
12:7:14.564,17538,979.4921875,236.328125,-83.0078125,0.18325957145940464,-0.04642575810304917,-0.1502728485967118,-1227,-1667,-1256,3890,313,100651
12:7:14.585,17539,975.5859375,233.3984375,-82.03125,0.12583823906879116,-0.05986479334340551,-0.1502728485967118,-1227,-1667,-1256,3890,313,100651
12:7:14.595,17540,976.5625,232.421875,-85.9375,0.10262536001726659,-0.07086036763096978,-0.1429424657383356,-1227,-1667,-1256,3890,313,100651
12:7:14.616,17541,974.609375,233.3984375,-83.984375,0.06963863715457375,-0.06597344572538566,-0.1343903524035634,-1237,-1665,-1252,3890,313,100651
12:7:14.636,17542,978.515625,234.375,-73.2421875,0.03787364476827696,-0.06475171524898964,-0.1307251609743753,-1237,-1665,-1252,3890,313,100651
12:7:14.656,17543,975.5859375,230.46875,-80.078125,0.004886921905584123,-0.06108652381980154,-0.12217304763960309,-1237,-1665,-1252,3890,313,100651
12:7:14.666,17544,978.515625,227.5390625,-75.1953125,-0.012217304763960306,-0.04642575810304917,-0.10873401239924674,-1237,-1665,-1252,3890,313,100651
12:7:14.707,17545,975.5859375,231.4453125,-78.125,-0.021991148575128554,-0.05742133239061345,-0.0671951762017817,-1237,-1665,-1252,3890,313,100651
12:7:14.728,17546,975.5859375,235.3515625,-82.03125,-0.03665191429188092,-0.05375614096142535,-0.05619960191421742,-1230,-1656,-1265,3890,313,100651
12:7:14.748,17547,984.375,241.2109375,-79.1015625,-0.007330382858376184,-0.03298672286269283,-0.04031710572106901,-1230,-1656,-1265,3890,313,100651
12:7:14.758,17548,984.375,243.1640625,-83.0078125,-0.03054326190990077,-0.04276056667386108,-0.010995574287564277,-1230,-1656,-1265,3890,313,100651
12:7:14.778,17549,984.375,248.046875,-88.8671875,-0.03543018381548489,-0.0317649923862968,0.004886921905584123,-1230,-1656,-1265,3890,313,100651
12:7:14.799,17550,982.421875,257.8125,-94.7265625,-0.04031710572106901,-0.026878070480712675,0.012217304763960306,-1226,-1655,-1239,3890,313,100651
12:7:14.820,17551,981.4453125,264.6484375,-98.6328125,-0.025656340004316647,-0.02809980095710871,0.04642575810304917,-1226,-1655,-1239,3890,313,100651
12:7:14.851,17552,977.5390625,269.53125,-94.7265625,-0.0024434609527920616,-0.03054326190990077,0.05375614096142535,-1226,-1655,-1239,3884,313,100654
12:7:14.871,17553,980.46875,274.4140625,-95.703125,0.0024434609527920616,-0.03665191429188092,0.051312680008633295,-1226,-1655,-1239,3884,313,100654
12:7:14.891,17554,975.5859375,273.4375,-103.515625,-0.0158824961931484,-0.052534410485029326,0.06230825429619757,-1226,-1655,-1239,3884,313,100654
12:7:14.912,17555,971.6796875,270.5078125,-111.328125,-0.05497787143782139,-0.06230825429619757,0.05742133239061345,-1229,-1655,-1253,3884,313,100654
12:7:14.922,17556,959.9609375,275.390625,-106.4453125,-0.09040805525330627,-0.0635299847725936,0.04520402762665313,-1229,-1655,-1253,3884,313,100654
12:7:14.942,17557,962.890625,277.34375,-106.4453125,-0.1148426647812269,-0.08918632477691024,0.05009094953223726,-1229,-1655,-1253,3884,313,100654
12:7:14.963,17558,964.84375,273.4375,-102.5390625,-0.1343903524035634,-0.09040805525330627,0.024434609527920613,-1229,-1655,-1253,3884,313,100654
12:7:14.983,17559,958.984375,274.4140625,-101.5625,-0.17470745812463243,-0.10629055144645469,0.023212879051524585,-1229,-1655,-1253,3884,313,100654
12:7:15.4,17560,968.75,260.7421875,-98.6328125,-0.18325957145940464,-0.10140362954087055,0.024434609527920613,-1233,-1664,-1255,3884,313,100654
12:7:15.14,17561,975.5859375,260.7421875,-94.7265625,-0.1954768762233649,-0.1038470904936626,0.04276056667386108,-1233,-1664,-1255,3884,313,100654
12:7:15.34,17562,981.4453125,273.4375,-90.8203125,-0.20036379812894903,-0.10140362954087055,0.0635299847725936,-1233,-1664,-1255,3884,313,100654
12:7:15.54,17563,983.3984375,275.390625,-86.9140625,-0.1478293876439197,-0.09040805525330627,0.08796459430051422,-1233,-1664,-1255,3884,313,100654
12:7:15.75,17564,979.4921875,279.296875,-90.8203125,-0.12095131716320705,-0.08429940287132612,0.08185594191853407,-1235,-1664,-1249,3884,313,100654
12:7:15.85,17565,983.3984375,275.390625,-90.8203125,-0.1075122819228507,-0.08063421144213802,0.052534410485029326,-1235,-1664,-1249,3884,313,100654
12:7:15.126,17566,985.3515625,267.578125,-89.84375,-0.11362093430483088,-0.06841690667817772,0.003665191429188092,-1235,-1664,-1249,3884,313,100654
12:7:15.146,17567,980.46875,267.578125,-98.6328125,-0.14538592669112765,-0.08063421144213802,0.003665191429188092,-1235,-1664,-1249,3884,313,100654
12:7:15.167,17568,980.46875,265.625,-98.6328125,-0.1392772743091475,-0.07819075048934597,-0.0158824961931484,-1235,-1664,-1249,3884,313,100654
12:7:15.178,17569,975.5859375,256.8359375,-92.7734375,-0.16737707526625623,-0.10018189906447451,-0.021991148575128554,-1227,-1669,-1253,3884,313,100654
12:7:15.198,17570,960.9375,258.7890625,-99.609375,-0.20647245051092922,-0.0952949771588904,-0.02809980095710871,-1227,-1669,-1253,3884,313,100654
12:7:15.219,17571,959.9609375,259.765625,-97.65625,-0.20647245051092922,-0.1038470904936626,-0.04276056667386108,-1227,-1669,-1253,3884,313,100654
12:7:15.239,17572,965.8203125,253.90625,-89.84375,-0.18570303241219668,-0.1148426647812269,-0.039095375244672985,-1227,-1669,-1253,3884,313,100654
12:7:15.270,17573,971.6796875,250.9765625,-91.796875,-0.19303341527057283,-0.12217304763960309,-0.048869219055841226,-1227,-1669,-1253,3884,313,100654
12:7:15.290,17574,976.5625,253.90625,-89.84375,-0.1710422666954443,-0.11239920382843484,-0.04642575810304917,-1232,-1668,-1248,3884,313,100654
12:7:15.311,17575,974.609375,250.0,-85.9375,-0.12828170002158323,-0.08429940287132612,-0.03665191429188092,-1232,-1668,-1248,3884,313,100654
12:7:15.331,17576,974.609375,255.859375,-85.9375,-0.10873401239924674,-0.0867428638241182,-0.01832595714594046,-1232,-1668,-1248,3884,313,100654
12:7:15.342,17577,976.5625,254.8828125,-86.9140625,-0.08429940287132612,-0.07574728953655392,-0.04031710572106901,-1232,-1668,-1248,3884,313,100654
12:7:15.362,17578,977.5390625,257.8125,-88.8671875,-0.07819075048934597,-0.07330382858376185,-0.019547687622336492,-1234,-1664,-1248,3884,313,100654
12:7:15.383,17579,981.4453125,258.7890625,-80.078125,-0.10262536001726659,-0.07696902001294993,-0.04276056667386108,-1234,-1664,-1248,3884,313,100654
12:7:15.404,17580,972.65625,249.0234375,-84.9609375,-0.13683381335635544,-0.07330382858376185,-0.05497787143782139,-1234,-1664,-1248,3884,313,100654
12:7:15.414,17581,957.03125,255.859375,-83.0078125,-0.1710422666954443,-0.05986479334340551,-0.0671951762017817,-1234,-1664,-1248,3884,313,100654
12:7:15.435,17582,965.8203125,258.7890625,-84.9609375,-0.1429424657383356,-0.052534410485029326,-0.05619960191421742,-1234,-1664,-1248,3884,313,100654
12:7:15.455,17583,973.6328125,252.9296875,-88.8671875,-0.11606439525762292,-0.03665191429188092,-0.05619960191421742,-1236,-1667,-1247,3884,313,100654
12:7:15.476,17584,992.1875,239.2578125,-83.0078125,-0.0952949771588904,-0.03420845333908886,-0.05375614096142535,-1236,-1667,-1247,3884,313,100654
12:7:15.496,17585,996.09375,236.328125,-81.0546875,-0.1502728485967118,-0.03420845333908886,-0.03420845333908886,-1236,-1667,-1247,3884,313,100654
12:7:15.506,17586,991.2109375,257.8125,-81.0546875,-0.15149457907310784,-0.03543018381548489,-0.020769418098732523,-1236,-1667,-1247,3884,313,100654
12:7:15.548,17587,982.421875,256.8359375,-79.1015625,-0.052534410485029326,0.006108652381980153,0.0,-1236,-1667,-1247,3884,313,100654
12:7:15.569,17588,976.5625,253.90625,-84.9609375,0.0989601685880785,0.05375614096142535,0.051312680008633295,-1232,-1665,-1249,3884,313,100654
12:7:15.579,17589,966.796875,268.5546875,-93.75,0.20891591146372127,0.06230825429619757,0.12095131716320705,-1232,-1665,-1249,3884,313,100654
12:7:15.599,17590,963.8671875,271.484375,-108.3984375,0.2663372438543347,0.07696902001294993,0.1893682238413848,-1232,-1665,-1249,3884,313,100654
12:7:15.620,17591,975.5859375,278.3203125,-116.2109375,0.22724186860966175,0.06597344572538566,0.17959438003021652,-1232,-1665,-1249,3884,313,100654
12:7:15.640,17592,974.609375,279.296875,-117.1875,0.0671951762017817,0.01832595714594046,0.09407324668249437,-1234,-1666,-1234,3884,313,100654
12:7:15.661,17593,982.421875,289.0625,-122.0703125,-0.08429940287132612,-0.03665191429188092,0.0012217304763960308,-1234,-1666,-1234,3884,313,100654
12:7:15.692,17594,979.4921875,269.53125,-112.3046875,-0.27977627909469105,-0.06475171524898964,-0.09407324668249437,-1234,-1666,-1234,3884,313,100654
12:7:15.712,17595,977.5390625,273.4375,-105.46875,-0.40194932673429407,-0.07819075048934597,-0.1734857276482364,-1234,-1666,-1234,3884,313,100654
12:7:15.733,17596,963.8671875,277.34375,-100.5859375,-0.42394047530942264,-0.06108652381980154,-0.2211332162276816,-1234,-1666,-1234,3884,313,100654
12:7:15.744,17597,962.890625,259.765625,-84.9609375,-0.31154127148098787,-0.05497787143782139,-0.23945917337362205,-1227,-1675,-1257,3884,313,100654
12:7:15.764,17598,958.984375,241.2109375,-90.8203125,-0.22479840765686968,-0.020769418098732523,-0.19669860669976097,-1227,-1675,-1257,3884,313,100654
12:7:15.785,17599,966.796875,244.140625,-99.609375,-0.13194689145077132,-0.025656340004316647,-0.11728612573401895,-1227,-1675,-1257,3884,313,100654
12:7:15.805,17600,967.7734375,253.90625,-98.6328125,-0.01710422666954443,-0.0317649923862968,0.007330382858376184,-1227,-1675,-1257,3884,313,100654
12:7:15.826,17601,977.5390625,264.6484375,-92.7734375,0.024434609527920613,-0.02809980095710871,0.048869219055841226,-1227,-1675,-1257,3884,313,100654
12:7:15.836,17602,982.421875,276.3671875,-95.703125,0.04153883619746505,-0.04031710572106901,0.048869219055841226,-1229,-1668,-1256,3948,313,100647
12:7:15.856,17603,987.3046875,287.109375,-93.75,0.03787364476827696,-0.03787364476827696,-0.0012217304763960308,-1229,-1668,-1256,3948,313,100647
12:7:15.876,17604,977.5390625,272.4609375,-97.65625,-0.008552113334772215,-0.021991148575128554,-0.03787364476827696,-1229,-1668,-1256,3948,313,100647
12:7:15.897,17605,987.3046875,276.3671875,-98.6328125,-0.07696902001294993,-0.039095375244672985,-0.06230825429619757,-1229,-1668,-1256,3948,313,100647
12:7:15.917,17606,984.375,279.296875,-99.609375,-0.09651670763528641,-0.058643062867009474,-0.04276056667386108,-1228,-1669,-1250,3948,313,100647
12:7:15.927,17607,970.703125,278.3203125,-97.65625,-0.09040805525330627,-0.05375614096142535,-0.05497787143782139,-1228,-1669,-1250,3948,313,100647
12:7:15.968,17608,971.6796875,265.625,-100.5859375,-0.09162978572970232,-0.06230825429619757,-0.06841690667817772,-1228,-1669,-1250,3948,313,100647
12:7:15.988,17609,965.8203125,273.4375,-95.703125,-0.07941248096574201,-0.07086036763096978,-0.048869219055841226,-1228,-1669,-1250,3948,313,100647
12:7:15.998,17610,960.9375,278.3203125,-93.75,-0.010995574287564277,-0.06475171524898964,-0.01832595714594046,-1228,-1669,-1250,3948,313,100647
12:7:16.19,17611,972.65625,286.1328125,-90.8203125,0.08552113334772216,-0.06108652381980154,0.013439035240356337,-1227,-1670,-1257,3948,313,100647
12:7:16.39,17612,971.6796875,272.4609375,-89.84375,0.1710422666954443,-0.06230825429619757,0.04642575810304917,-1227,-1670,-1257,3948,313,100647
12:7:16.59,17613,976.5625,272.4609375,-83.984375,0.16859880574265224,-0.051312680008633295,0.04153883619746505,-1227,-1670,-1257,3948,313,100647
12:7:16.80,17614,980.46875,281.25,-84.9609375,0.17837264955382048,-0.05619960191421742,0.048869219055841226,-1227,-1670,-1257,3948,313,100647
12:7:16.110,17615,987.3046875,278.3203125,-83.984375,0.17837264955382048,-0.051312680008633295,0.02809980095710871,-1227,-1670,-1257,3948,313,100647
12:7:16.131,17616,989.2578125,277.34375,-83.0078125,0.15882496193148402,-0.052534410485029326,-0.004886921905584123,-1234,-1670,-1262,3948,313,100647
12:7:16.151,17617,987.3046875,276.3671875,-84.9609375,0.14905111812031577,-0.052534410485029326,-0.04276056667386108,-1234,-1670,-1262,3948,313,100647
12:7:16.162,17618,985.3515625,268.5546875,-85.9375,0.12828170002158323,-0.05742133239061345,-0.08796459430051422,-1234,-1670,-1262,3948,313,100647
12:7:16.182,17619,978.515625,258.7890625,-86.9140625,0.0989601685880785,-0.048869219055841226,-0.14049900478554353,-1234,-1670,-1262,3948,313,100647
12:7:16.202,17620,976.5625,246.09375,-90.8203125,0.04276056667386108,-0.06230825429619757,-0.1551597705022959,-1234,-1670,-1262,3948,313,100647
12:7:16.223,17621,977.5390625,241.2109375,-84.9609375,0.012217304763960306,-0.07208209810736582,-0.1478293876439197,-1228,-1674,-1260,3948,313,100647
12:7:16.243,17622,976.5625,238.28125,-77.1484375,0.0,-0.08552113334772216,-0.15882496193148402,-1228,-1674,-1260,3948,313,100647
12:7:16.254,17623,978.515625,235.3515625,-76.171875,-0.008552113334772215,-0.08918632477691024,-0.16126842288427604,-1228,-1674,-1260,3948,313,100647
12:7:16.274,17624,991.2109375,231.4453125,-78.125,-0.023212879051524585,-0.0867428638241182,-0.16004669240788005,-1228,-1674,-1260,3948,313,100647
12:7:16.295,17625,981.4453125,226.5625,-73.2421875,-0.02809980095710871,-0.05742133239061345,-0.1551597705022959,-1231,-1670,-1256,3948,313,100647
12:7:16.315,17626,984.375,226.5625,-72.265625,-0.019547687622336492,-0.058643062867009474,-0.13805554383275148,-1231,-1670,-1256,3948,313,100647
12:7:16.335,17627,984.375,222.65625,-76.171875,-0.0024434609527920616,-0.04642575810304917,-0.13683381335635544,-1231,-1670,-1256,3948,313,100647
12:7:16.345,17628,986.328125,221.6796875,-83.0078125,0.004886921905584123,-0.04153883619746505,-0.11239920382843484,-1231,-1670,-1256,3948,313,100647
12:7:16.386,17629,992.1875,223.6328125,-83.0078125,-0.019547687622336492,-0.04642575810304917,-0.09162978572970232,-1231,-1670,-1256,3948,313,100647
12:7:16.407,17630,994.140625,220.703125,-84.9609375,-0.019547687622336492,-0.04276056667386108,-0.07696902001294993,-1231,-1665,-1255,3948,313,100647
12:7:16.417,17631,997.0703125,235.3515625,-83.984375,-0.04031710572106901,-0.029321531433504737,-0.0671951762017817,-1231,-1665,-1255,3948,313,100647
12:7:16.438,17632,985.3515625,240.234375,-95.703125,-0.010995574287564277,-0.025656340004316647,-0.04276056667386108,-1231,-1665,-1255,3948,313,100647
12:7:16.459,17633,967.7734375,242.1875,-101.5625,0.024434609527920613,-0.01832595714594046,-0.01710422666954443,-1231,-1665,-1255,3948,313,100647
12:7:16.480,17634,962.890625,239.2578125,-102.5390625,0.04276056667386108,-0.010995574287564277,-0.004886921905584123,-1231,-1665,-1255,3948,313,100647
12:7:16.490,17635,969.7265625,241.2109375,-104.4921875,0.048869219055841226,-0.007330382858376184,-0.004886921905584123,-1229,-1661,-1263,3948,313,100647
12:7:16.531,17636,971.6796875,242.1875,-110.3515625,0.04642575810304917,-0.029321531433504737,0.008552113334772215,-1229,-1661,-1263,3948,313,100647
12:7:16.551,17637,974.609375,248.046875,-109.375,0.01710422666954443,-0.0476474885794452,0.026878070480712675,-1229,-1661,-1263,3948,313,100647
12:7:16.572,17638,975.5859375,254.8828125,-107.421875,-0.007330382858376184,-0.058643062867009474,0.04642575810304917,-1229,-1661,-1263,3948,313,100647
12:7:16.582,17639,978.515625,267.578125,-102.5390625,-0.023212879051524585,-0.06841690667817772,0.03543018381548489,-1231,-1660,-1269,3948,313,100647
12:7:16.603,17640,980.46875,272.4609375,-100.5859375,-0.03298672286269283,-0.07574728953655392,0.014660765716752368,-1231,-1660,-1269,3948,313,100647
12:7:16.624,17641,978.515625,264.6484375,-101.5625,-0.04031710572106901,-0.0830776723949301,-0.009773843811168246,-1231,-1660,-1269,3948,313,100647
12:7:16.645,17642,978.515625,260.7421875,-97.65625,-0.07208209810736582,-0.09285151620609834,-0.007330382858376184,-1231,-1660,-1269,3948,313,100647
12:7:16.655,17643,972.65625,264.6484375,-96.6796875,-0.10140362954087055,-0.10140362954087055,-0.04276056667386108,-1231,-1660,-1269,3948,313,100647
12:7:16.675,17644,977.5390625,263.671875,-93.75,-0.1429424657383356,-0.11239920382843484,-0.05497787143782139,-1232,-1666,-1262,3948,313,100647
12:7:16.696,17645,972.65625,255.859375,-93.75,-0.18448130193580062,-0.10262536001726659,-0.08185594191853407,-1232,-1666,-1262,3948,313,100647
12:7:16.716,17646,976.5625,258.7890625,-90.8203125,-0.23335052099164189,-0.11972958668681102,-0.11728612573401895,-1232,-1666,-1262,3948,313,100647
12:7:16.737,17647,977.5390625,250.9765625,-94.7265625,-0.24801128670839426,-0.11362093430483088,-0.1270599695451872,-1232,-1666,-1262,3948,313,100647
12:7:16.747,17648,983.3984375,247.0703125,-95.703125,-0.2577851305195625,-0.1270599695451872,-0.1356120828799594,-1232,-1666,-1262,3948,313,100647
12:7:16.768,17649,980.46875,234.375,-88.8671875,-0.28344147052387914,-0.12461650859239513,-0.1356120828799594,-1232,-1662,-1274,3948,313,100647
12:7:16.809,17650,981.4453125,234.375,-85.9375,-0.3200933848157601,-0.12217304763960309,-0.13805554383275148,-1232,-1662,-1274,3948,313,100647
12:7:16.820,17651,972.65625,251.953125,-84.9609375,-0.2895501229058593,-0.10995574287564278,-0.1148426647812269,-1232,-1662,-1274,3948,313,100647
12:7:16.840,17652,977.5390625,244.140625,-84.9609375,-0.197920337176157,-0.08918632477691024,-0.0635299847725936,-1232,-1662,-1274,3884,313,100648
12:7:16.861,17653,975.5859375,239.2578125,-88.8671875,-0.17715091907742447,-0.09773843811168245,-0.03665191429188092,-1229,-1658,-1262,3884,313,100648
12:7:16.882,17654,975.5859375,244.140625,-84.9609375,-0.19669860669976097,-0.09651670763528641,-0.021991148575128554,-1229,-1658,-1262,3884,313,100648
12:7:16.892,17655,963.8671875,253.90625,-88.8671875,-0.20402898955813717,-0.09040805525330627,-0.009773843811168246,-1229,-1658,-1262,3884,313,100648
12:7:16.913,17656,957.03125,261.71875,-89.84375,-0.17715091907742447,-0.09162978572970232,0.013439035240356337,-1229,-1658,-1262,3884,313,100648
12:7:17.26,17657,964.84375,258.7890625,-86.9140625,-0.14905111812031577,-0.0989601685880785,0.03665191429188092,-1229,-1658,-1262,3884,313,100648
12:7:17.46,17658,961.9140625,261.71875,-84.9609375,-0.14538592669112765,-0.09040805525330627,0.04520402762665313,-1234,-1657,-1260,3884,313,100648
12:7:17.56,17659,979.4921875,274.4140625,-86.9140625,-0.1661553447898602,-0.09651670763528641,0.05619960191421742,-1234,-1657,-1260,3884,313,100648
12:7:17.77,17660,977.5390625,278.3203125,-81.0546875,-0.1734857276482364,-0.08796459430051422,0.02809980095710871,-1234,-1657,-1260,3884,313,100648
12:7:17.97,17661,975.5859375,277.34375,-83.984375,-0.17959438003021652,-0.07452555906015788,0.0158824961931484,-1234,-1657,-1260,3884,313,100648
12:7:17.117,17662,973.6328125,288.0859375,-78.125,-0.17226399717184035,-0.07330382858376185,0.04031710572106901,-1234,-1657,-1260,3884,313,100648
12:7:17.137,17663,964.84375,282.2265625,-80.078125,-0.1392772743091475,-0.05497787143782139,0.03298672286269283,-1238,-1665,-1253,3884,313,100648
12:7:17.147,17664,966.796875,276.3671875,-87.890625,-0.12095131716320705,-0.04520402762665313,0.02809980095710871,-1238,-1665,-1253,3884,313,100648
12:7:17.168,17665,973.6328125,285.15625,-86.9140625,-0.12828170002158323,-0.04398229715025711,0.04276056667386108,-1238,-1665,-1253,3884,313,100648
12:7:17.188,17666,982.421875,293.9453125,-93.75,-0.08063421144213802,-0.04642575810304917,0.05742133239061345,-1238,-1665,-1253,3884,313,100648
12:7:17.209,17667,979.4921875,296.875,-95.703125,-0.06597344572538566,-0.03298672286269283,0.05375614096142535,-1230,-1663,-1261,3884,313,100648
12:7:17.219,17668,974.609375,285.15625,-101.5625,-0.07452555906015788,-0.029321531433504737,0.03298672286269283,-1230,-1663,-1261,3884,313,100648
12:7:17.240,17669,983.3984375,302.734375,-110.3515625,-0.08429940287132612,-0.025656340004316647,0.010995574287564277,-1230,-1663,-1261,3884,313,100648
12:7:17.260,17670,992.1875,307.6171875,-107.421875,-0.06108652381980154,-0.03543018381548489,-0.007330382858376184,-1230,-1663,-1261,3884,313,100648
12:7:17.280,17671,985.3515625,298.828125,-110.3515625,-0.0635299847725936,-0.03787364476827696,-0.02809980095710871,-1230,-1663,-1261,3884,313,100648
12:7:17.301,17672,974.609375,289.0625,-112.3046875,-0.07696902001294993,-0.04398229715025711,-0.07941248096574201,-1234,-1668,-1249,3884,313,100648
12:7:17.311,17673,977.5390625,284.1796875,-112.3046875,-0.09407324668249437,-0.06475171524898964,-0.10873401239924674,-1234,-1668,-1249,3884,313,100648
12:7:17.332,17674,980.46875,274.4140625,-109.375,-0.0989601685880785,-0.07696902001294993,-0.11850785621041499,-1234,-1668,-1249,3884,313,100648
12:7:17.353,17675,972.65625,265.625,-104.4921875,-0.07208209810736582,-0.10018189906447451,-0.10262536001726659,-1234,-1668,-1249,3884,313,100648
12:7:17.373,17676,961.9140625,262.6953125,-98.6328125,-0.09773843811168245,-0.1111774733520388,-0.10873401239924674,-1234,-1668,-1249,3884,313,100648
12:7:17.383,17677,961.9140625,265.625,-94.7265625,-0.10629055144645469,-0.1075122819228507,-0.09651670763528641,-1227,-1666,-1247,3884,313,100648
12:7:17.403,17678,972.65625,267.578125,-87.890625,-0.09651670763528641,-0.10873401239924674,-0.10873401239924674,-1227,-1666,-1247,3884,313,100648
12:7:17.424,17679,971.6796875,259.765625,-84.9609375,-0.06841690667817772,-0.10140362954087055,-0.1148426647812269,-1227,-1666,-1247,3884,313,100648
12:7:17.444,17680,971.6796875,258.7890625,-85.9375,-0.06963863715457375,-0.09162978572970232,-0.1111774733520388,-1227,-1666,-1247,3884,313,100648
12:7:17.464,17681,972.65625,252.9296875,-81.0546875,-0.06230825429619757,-0.08552113334772216,-0.07330382858376185,-1230,-1660,-1251,3884,313,100648
12:7:17.475,17682,979.4921875,260.7421875,-77.1484375,-0.05986479334340551,-0.09407324668249437,-0.05619960191421742,-1230,-1660,-1251,3884,313,100648
12:7:17.495,17683,977.5390625,263.671875,-74.21875,-0.0635299847725936,-0.07696902001294993,-0.04276056667386108,-1230,-1660,-1251,3884,313,100648
12:7:17.516,17684,978.515625,258.7890625,-67.3828125,-0.03420845333908886,-0.05986479334340551,-0.0671951762017817,-1230,-1660,-1251,3884,313,100648
12:7:17.536,17685,975.5859375,257.8125,-70.3125,-0.04276056667386108,-0.0317649923862968,-0.05742133239061345,-1230,-1660,-1251,3884,313,100648
12:7:17.556,17686,968.75,256.8359375,-70.3125,-0.03054326190990077,-0.025656340004316647,-0.0317649923862968,-1230,-1658,-1253,3884,313,100648
12:7:17.566,17687,964.84375,260.7421875,-76.171875,0.0012217304763960308,-0.010995574287564277,-0.02809980095710871,-1230,-1658,-1253,3884,313,100648
12:7:17.587,17688,970.703125,255.859375,-75.1953125,0.024434609527920613,0.008552113334772215,-0.03665191429188092,-1230,-1658,-1253,3884,313,100648
12:7:17.607,17689,968.75,250.0,-78.125,0.007330382858376184,0.012217304763960306,-0.03787364476827696,-1230,-1658,-1253,3884,313,100648
12:7:17.628,17690,968.75,262.6953125,-81.0546875,-0.01710422666954443,0.020769418098732523,-0.025656340004316647,-1230,-1658,-1253,3884,313,100648
12:7:17.638,17691,966.796875,255.859375,-83.984375,-0.01832595714594046,0.03787364476827696,-0.021991148575128554,-1230,-1656,-1262,3884,313,100648
12:7:17.659,17692,972.65625,267.578125,-83.984375,0.0158824961931484,0.03787364476827696,-0.007330382858376184,-1230,-1656,-1262,3884,313,100648
12:7:17.679,17693,978.515625,267.578125,-85.9375,0.04398229715025711,0.05986479334340551,-0.020769418098732523,-1230,-1656,-1262,3884,313,100648
12:7:17.700,17694,983.3984375,260.7421875,-87.890625,0.07208209810736582,0.05986479334340551,-0.019547687622336492,-1230,-1656,-1262,3884,313,100648
12:7:17.720,17695,983.3984375,259.765625,-93.75,0.05986479334340551,0.07574728953655392,-0.01710422666954443,-1230,-1656,-1262,3884,313,100648
12:7:17.731,17696,981.4453125,265.625,-98.6328125,0.07819075048934597,0.07086036763096978,0.004886921905584123,-1231,-1661,-1247,3884,313,100648
12:7:17.751,17697,979.4921875,265.625,-98.6328125,0.08796459430051422,0.05375614096142535,-0.007330382858376184,-1231,-1661,-1247,3884,313,100648
12:7:17.772,17698,975.5859375,256.8359375,-99.609375,0.07819075048934597,0.05619960191421742,-0.029321531433504737,-1231,-1661,-1247,3884,313,100648
12:7:17.792,17699,981.4453125,259.765625,-96.6796875,0.06597344572538566,0.05375614096142535,-0.03054326190990077,-1231,-1661,-1247,3884,313,100648
12:7:17.802,17700,994.140625,258.7890625,-96.6796875,0.06475171524898964,0.0317649923862968,-0.021991148575128554,-1232,-1659,-1261,3884,313,100648
12:7:17.823,17701,994.140625,260.7421875,-91.796875,0.06230825429619757,0.024434609527920613,-0.024434609527920613,-1232,-1659,-1261,3884,313,100648
12:7:17.843,17702,992.1875,257.8125,-91.796875,0.06108652381980154,0.029321531433504737,-0.04153883619746505,-1232,-1659,-1261,3884,313,100653
12:7:17.864,17703,991.2109375,252.9296875,-98.6328125,0.04276056667386108,0.03787364476827696,-0.06230825429619757,-1232,-1659,-1261,3884,313,100653
12:7:17.875,17704,996.09375,255.859375,-95.703125,0.0476474885794452,0.024434609527920613,-0.048869219055841226,-1232,-1659,-1261,3884,313,100653
12:7:17.895,17705,981.4453125,257.8125,-93.75,0.0867428638241182,0.014660765716752368,-0.019547687622336492,-1224,-1657,-1268,3884,313,100653
12:7:17.935,17706,968.75,250.0,-93.75,0.08918632477691024,-0.0024434609527920616,-0.012217304763960306,-1224,-1657,-1268,3884,313,100653
12:7:17.956,17707,965.8203125,248.046875,-90.8203125,0.05986479334340551,-0.0158824961931484,-0.01832595714594046,-1224,-1657,-1268,3884,313,100653
12:7:17.966,17708,976.5625,249.0234375,-82.03125,0.026878070480712675,-0.03665191429188092,-0.03054326190990077,-1224,-1657,-1268,3884,313,100653
12:7:17.987,17709,981.4453125,250.0,-80.078125,-0.006108652381980153,-0.03665191429188092,-0.05009094953223726,-1224,-1657,-1268,3884,313,100653
12:7:18.8,17710,981.4453125,243.1640625,-74.21875,-0.04398229715025711,-0.04153883619746505,-0.05986479334340551,-1227,-1663,-1286,3884,313,100653
12:7:18.29,17711,981.4453125,241.2109375,-72.265625,-0.04276056667386108,-0.04642575810304917,-0.048869219055841226,-1227,-1663,-1286,3884,313,100653
12:7:18.39,17712,981.4453125,235.3515625,-65.4296875,-0.0317649923862968,-0.04520402762665313,-0.03420845333908886,-1227,-1663,-1286,3884,313,100653
12:7:18.60,17713,979.4921875,230.46875,-57.6171875,-0.052534410485029326,-0.05742133239061345,-0.026878070480712675,-1227,-1663,-1286,3884,313,100653
12:7:18.80,17714,971.6796875,235.3515625,-55.6640625,-0.11362093430483088,-0.06841690667817772,-0.025656340004316647,-1224,-1664,-1277,3884,313,100653
12:7:18.101,17715,974.609375,241.2109375,-57.6171875,-0.14049900478554353,-0.058643062867009474,-0.0317649923862968,-1224,-1664,-1277,3884,313,100653
12:7:18.121,17716,977.5390625,251.953125,-60.546875,-0.15882496193148402,-0.04276056667386108,-0.04520402762665313,-1224,-1664,-1277,3884,313,100653
12:7:18.131,17717,982.421875,248.046875,-58.59375,-0.12950343049797927,-0.021991148575128554,-0.04276056667386108,-1224,-1664,-1277,3884,313,100653
12:7:18.152,17718,983.3984375,255.859375,-62.5,-0.12583823906879116,-0.013439035240356337,-0.039095375244672985,-1224,-1664,-1277,3884,313,100653
12:7:18.203,17719,982.421875,243.1640625,-67.3828125,-0.11972958668681102,-0.013439035240356337,-0.029321531433504737,-1236,-1666,-1275,3884,313,100653
12:7:18.224,17720,983.3984375,249.0234375,-75.1953125,-0.1478293876439197,-0.010995574287564277,-0.0158824961931484,-1236,-1666,-1275,3884,313,100653
12:7:18.244,17721,983.3984375,256.8359375,-76.171875,-0.13194689145077132,-0.020769418098732523,0.01710422666954443,-1236,-1666,-1275,3884,313,100653
12:7:18.265,17722,980.46875,261.71875,-75.1953125,-0.11239920382843484,-0.03298672286269283,0.03054326190990077,-1236,-1666,-1275,3884,313,100653
12:7:18.285,17723,982.421875,254.8828125,-77.1484375,-0.11239920382843484,-0.024434609527920613,0.008552113334772215,-1236,-1666,-1275,3884,313,100653
12:7:18.296,17724,983.3984375,255.859375,-82.03125,-0.13683381335635544,-0.025656340004316647,0.003665191429188092,-1229,-1664,-1264,3884,313,100653
12:7:18.316,17725,981.4453125,257.8125,-79.1015625,-0.1478293876439197,-0.03298672286269283,-0.013439035240356337,-1229,-1664,-1264,3884,313,100653
12:7:18.336,17726,978.515625,254.8828125,-77.1484375,-0.1392772743091475,-0.039095375244672985,-0.0158824961931484,-1229,-1664,-1264,3884,313,100653
12:7:18.357,17727,982.421875,251.953125,-78.125,-0.1429424657383356,-0.0476474885794452,-0.01710422666954443,-1229,-1664,-1264,3884,313,100653
12:7:18.367,17728,976.5625,248.046875,-85.9375,-0.1478293876439197,-0.048869219055841226,-0.013439035240356337,-1232,-1665,-1283,3884,313,100653
12:7:18.387,17729,980.46875,254.8828125,-78.125,-0.12950343049797927,-0.06841690667817772,0.0,-1232,-1665,-1283,3884,313,100653
12:7:18.408,17730,983.3984375,248.046875,-78.125,-0.13316862192716736,-0.07819075048934597,0.007330382858376184,-1232,-1665,-1283,3884,313,100653
12:7:18.428,17731,980.46875,254.8828125,-72.265625,-0.1466076571675237,-0.08552113334772216,-0.006108652381980153,-1232,-1665,-1283,3884,313,100653
12:7:18.448,17732,984.375,253.90625,-73.2421875,-0.1356120828799594,-0.09162978572970232,0.010995574287564277,-1232,-1665,-1283,3884,313,100653
12:7:18.459,17733,985.3515625,253.90625,-73.2421875,-0.14538592669112765,-0.09407324668249437,0.008552113334772215,-1230,-1668,-1278,3884,313,100653
12:7:18.479,17734,984.375,259.765625,-67.3828125,-0.1429424657383356,-0.0989601685880785,-0.006108652381980153,-1230,-1668,-1278,3884,313,100653
12:7:18.499,17735,983.3984375,253.90625,-70.3125,-0.13194689145077132,-0.09285151620609834,-0.013439035240356337,-1230,-1668,-1278,3884,313,100653
12:7:18.520,17736,984.375,250.0,-70.3125,-0.11606439525762292,-0.0867428638241182,-0.008552113334772215,-1230,-1668,-1278,3884,313,100653
12:7:18.540,17737,979.4921875,248.046875,-72.265625,-0.12583823906879116,-0.10506882097005865,-0.014660765716752368,-1230,-1668,-1278,3884,313,100653
12:7:18.550,17738,981.4453125,251.953125,-68.359375,-0.1356120828799594,-0.10018189906447451,-0.004886921905584123,-1227,-1666,-1273,3884,313,100653
12:7:18.571,17739,977.5390625,250.9765625,-63.4765625,-0.12828170002158323,-0.1111774733520388,-0.006108652381980153,-1227,-1666,-1273,3884,313,100653
12:7:18.592,17740,979.4921875,246.09375,-65.4296875,-0.1551597705022959,-0.09651670763528641,-0.02809980095710871,-1227,-1666,-1273,3884,313,100653
12:7:18.633,17741,980.46875,245.1171875,-60.546875,-0.16982053621904827,-0.10018189906447451,-0.026878070480712675,-1227,-1666,-1273,3884,313,100653
12:7:18.644,17742,978.515625,253.90625,-61.5234375,-0.14905111812031577,-0.10262536001726659,-0.020769418098732523,-1225,-1669,-1274,3884,313,100653
12:7:18.664,17743,980.46875,248.046875,-54.6875,-0.10873401239924674,-0.10140362954087055,-0.009773843811168246,-1225,-1669,-1274,3884,313,100653
12:7:18.685,17744,979.4921875,239.2578125,-57.6171875,-0.10629055144645469,-0.0830776723949301,-0.029321531433504737,-1225,-1669,-1274,3884,313,100653
12:7:18.705,17745,976.5625,247.0703125,-54.6875,-0.1551597705022959,-0.07819075048934597,-0.029321531433504737,-1225,-1669,-1274,3884,313,100653
12:7:18.716,17746,981.4453125,246.09375,-58.59375,-0.15271630954950383,-0.0867428638241182,-0.0158824961931484,-1225,-1669,-1274,3884,313,100653
12:7:18.736,17747,982.421875,250.0,-55.6640625,-0.14049900478554353,-0.06597344572538566,-0.012217304763960306,-1231,-1671,-1274,3884,313,100653
12:7:18.777,17748,979.4921875,251.953125,-62.5,-0.10873401239924674,-0.07086036763096978,-0.006108652381980153,-1231,-1671,-1274,3884,313,100653
12:7:18.798,17749,979.4921875,244.140625,-60.546875,-0.08185594191853407,-0.05497787143782139,-0.014660765716752368,-1231,-1671,-1274,3884,313,100653
12:7:18.808,17750,979.4921875,245.1171875,-58.59375,-0.09285151620609834,-0.07330382858376185,-0.013439035240356337,-1231,-1671,-1274,3884,313,100653
12:7:18.828,17751,979.4921875,248.046875,-66.40625,-0.12950343049797927,-0.07452555906015788,-0.010995574287564277,-1231,-1671,-1274,3884,313,100653
12:7:18.849,17752,981.4453125,249.0234375,-65.4296875,-0.1343903524035634,-0.07208209810736582,-0.03054326190990077,-1226,-1668,-1280,3884,313,100646
12:7:18.869,17753,981.4453125,255.859375,-62.5,-0.11850785621041499,-0.06475171524898964,-0.03054326190990077,-1226,-1668,-1280,3884,313,100646
12:7:18.890,17754,982.421875,246.09375,-63.4765625,-0.10140362954087055,-0.04642575810304917,-0.03420845333908886,-1226,-1668,-1280,3884,313,100646
12:7:18.900,17755,988.28125,246.09375,-66.40625,-0.0952949771588904,-0.04520402762665313,-0.0317649923862968,-1226,-1668,-1280,3884,313,100646
12:7:18.920,17756,984.375,240.234375,-65.4296875,-0.11239920382843484,-0.04520402762665313,-0.04276056667386108,-1224,-1668,-1279,3884,313,100646
12:7:18.940,17757,988.28125,248.046875,-67.3828125,-0.11972958668681102,-0.058643062867009474,-0.03054326190990077,-1224,-1668,-1279,3884,313,100646
12:7:18.961,17758,979.4921875,250.9765625,-72.265625,-0.1038470904936626,-0.05375614096142535,-0.03298672286269283,-1224,-1668,-1279,3884,313,100646
12:7:18.971,17759,976.5625,252.9296875,-69.3359375,-0.1075122819228507,-0.05619960191421742,-0.04398229715025711,-1224,-1668,-1279,3884,313,100646
12:7:18.991,17760,977.5390625,254.8828125,-72.265625,-0.09651670763528641,-0.058643062867009474,-0.0476474885794452,-1224,-1668,-1279,3884,313,100646
12:7:19.12,17761,981.4453125,250.0,-79.1015625,-0.09407324668249437,-0.05009094953223726,-0.05497787143782139,-1226,-1667,-1266,3884,313,100646
12:7:19.54,17762,999.0234375,249.0234375,-81.0546875,-0.1307251609743753,-0.06475171524898964,-0.06475171524898964,-1226,-1667,-1266,3884,313,100646
12:7:19.64,17763,997.0703125,249.0234375,-78.125,-0.1502728485967118,-0.08796459430051422,-0.05742133239061345,-1226,-1667,-1266,3884,313,100646
12:7:19.85,17764,992.1875,245.1171875,-78.125,-0.16859880574265224,-0.1075122819228507,-0.048869219055841226,-1226,-1667,-1266,3884,313,100646
12:7:19.106,17765,982.421875,248.046875,-73.2421875,-0.18081611050661253,-0.1148426647812269,-0.07208209810736582,-1226,-1667,-1266,3884,313,100646
12:7:19.127,17766,981.4453125,244.140625,-75.1953125,-0.16371188383706814,-0.09285151620609834,-0.07452555906015788,-1228,-1671,-1269,3884,313,100646
12:7:19.137,17767,974.609375,238.28125,-75.1953125,-0.12828170002158323,-0.07819075048934597,-0.06963863715457375,-1228,-1671,-1269,3884,313,100646
12:7:19.157,17768,972.65625,235.3515625,-72.265625,-0.10140362954087055,-0.08185594191853407,-0.05619960191421742,-1228,-1671,-1269,3884,313,100646
12:7:19.198,17769,983.3984375,233.3984375,-70.3125,-0.09040805525330627,-0.0989601685880785,-0.04520402762665313,-1228,-1671,-1269,3884,313,100646
12:7:19.208,17770,985.3515625,229.4921875,-68.359375,-0.1075122819228507,-0.1111774733520388,-0.024434609527920613,-1228,-1671,-1269,3884,313,100646
12:7:19.229,17771,984.375,226.5625,-71.2890625,-0.12461650859239513,-0.0989601685880785,-0.039095375244672985,-1230,-1672,-1277,3884,313,100646
12:7:19.250,17772,981.4453125,241.2109375,-72.265625,-0.14416419621473164,-0.1111774733520388,-0.0158824961931484,-1230,-1672,-1277,3884,313,100646
12:7:19.271,17773,980.46875,249.0234375,-70.3125,-0.12217304763960309,-0.09651670763528641,-0.012217304763960306,-1230,-1672,-1277,3884,313,100646
12:7:19.281,17774,985.3515625,254.8828125,-80.078125,-0.09285151620609834,-0.10140362954087055,-0.004886921905584123,-1230,-1672,-1277,3884,313,100646
12:7:19.302,17775,998.046875,214.84375,-137.6953125,-0.16493361431346415,-0.11606439525762292,-0.04398229715025711,-1223,-1668,-1275,3884,313,100646
12:7:19.322,17776,1017.578125,184.5703125,-147.4609375,-0.4618141200776996,-0.18814649336498873,-0.0952949771588904,-1223,-1668,-1275,3884,313,100646
12:7:19.342,17777,1007.8125,217.7734375,-123.046875,-1.1374310735247046,-0.3445279943436807,-0.10018189906447451,-1223,-1668,-1275,3884,313,100646
12:7:19.363,17778,1002.9296875,338.8671875,-144.53125,-1.4245377354777717,-0.4288273972150068,-0.12950343049797927,-1223,-1668,-1275,3884,313,100646
12:7:19.383,17779,984.375,438.4765625,-179.6875,-1.2559389297351196,-0.437379510549779,-0.17592918860102844,-1223,-1668,-1275,3884,313,100646
12:7:19.393,17780,977.5390625,461.9140625,-185.546875,-0.8539896030008255,-0.38362336958835364,-0.28344147052387914,-1229,-1661,-1275,3884,313,100646
12:7:19.413,17781,987.3046875,450.1953125,-198.2421875,-0.40072759625789806,-0.3298672286269283,-0.40194932673429407,-1229,-1661,-1275,3884,313,100646
12:7:19.434,17782,1011.71875,434.5703125,-199.21875,-0.26267205242514663,-0.34941491624926485,-0.5094616086571448,-1229,-1661,-1275,3884,313,100646
12:7:19.465,17783,1002.9296875,417.96875,-200.1953125,-0.2431243648028101,-0.3909537524467298,-0.5864306286700948,-1229,-1661,-1275,3884,313,100646
12:7:19.485,17784,987.3046875,430.6640625,-200.1953125,-0.3042108886226117,-0.4691445029360758,-0.676838683923401,-1229,-1661,-1275,3884,313,100646
12:7:19.506,17785,996.09375,495.1171875,-204.1015625,-0.3445279943436807,-0.5290092962794813,-0.7806857744170637,-1227,-1651,-1252,3884,313,100646
12:7:19.526,17786,992.1875,518.5546875,-201.171875,-0.2907718533822553,-0.55100044485461,-0.9053022830094588,-1227,-1651,-1252,3884,313,100646
12:7:19.547,17787,989.2578125,511.71875,-214.84375,-0.2541199390903744,-0.5412266010434416,-1.0775662801812993,-1227,-1651,-1252,3884,313,100646
12:7:19.557,17788,1000.0,542.96875,-193.359375,-0.2846632010002752,-0.5595525581893821,-1.2241739373488227,-1227,-1651,-1252,3884,313,100646
12:7:19.578,17789,1024.4140625,644.53125,-171.875,-0.28344147052387914,-0.6010913943868472,-1.4001031259498513,-1233,-1619,-1228,3884,313,100646
12:7:19.618,17790,1035.15625,748.046875,-172.8515625,-0.20647245051092922,-0.6377433086787281,-1.6139059593191567,-1233,-1619,-1228,3884,313,100646
12:7:19.629,17791,1050.78125,840.8203125,-161.1328125,0.10018189906447451,-0.676838683923401,-1.8545868631691746,-1233,-1619,-1228,3884,313,100646
12:7:19.649,17792,1040.0390625,824.21875,-183.59375,0.5253441048502933,-0.6927211801165495,-2.1258110289290935,-1233,-1619,-1228,3884,313,100646
12:7:19.670,17793,1004.8828125,818.359375,-198.2421875,0.8515461420480335,-0.6963863715457376,-2.3933700032598244,-1233,-1619,-1228,3884,313,100646
12:7:19.691,17794,977.5390625,839.84375,-209.9609375,0.7990117315630041,-0.7012732934513217,-2.543642851856536,-1243,-1564,-1210,3884,313,100646
12:7:19.711,17795,925.78125,863.28125,-217.7734375,0.6487388829662923,-0.7403686686959947,-2.647489942350199,-1243,-1564,-1210,3884,313,100646
12:7:19.721,17796,874.0234375,924.8046875,-225.5859375,0.5632177496185702,-0.7904596182282319,-2.759889146178634,-1243,-1564,-1210,3884,313,100646
12:7:19.742,17797,818.359375,987.3046875,-220.703125,0.6560692658246685,-0.8210028801381327,-2.891836037629405,-1243,-1564,-1210,3884,313,100646
12:7:19.762,17798,769.53125,1021.484375,-219.7265625,0.8649851772883896,-0.8234463410909247,-2.981022362406315,-1243,-1564,-1210,3884,313,100646
12:7:19.783,17799,721.6796875,1055.6640625,-246.09375,1.1203268468551604,-0.8063421144213803,-3.0469958081317006,-1286,-1488,-1181,3884,313,100646
12:7:19.803,17800,678.7109375,1030.2734375,-287.109375,1.3634512116579702,-0.7733553915586875,-3.1251865586210466,-1286,-1488,-1181,3884,313,100646
12:7:19.813,17801,669.921875,1073.2421875,-293.9453125,1.507615407872702,-0.7623598172711232,-3.2412509538786693,-1286,-1488,-1181,3884,313,100646
12:7:19.834,17802,637.6953125,1051.7578125,-296.875,1.4941763726323456,-0.7464773210779747,-3.3512066967543124,-1286,-1488,-1181,3884,314,100655
12:7:19.854,17803,588.8671875,1062.5,-310.546875,1.4917329116795537,-0.7232644420264501,-3.4293974472436584,-1350,-1413,-1143,3884,314,100655
12:7:19.885,17804,532.2265625,1079.1015625,-354.4921875,1.624901533606721,-0.7122688677388859,-3.5027012758274205,-1350,-1413,-1143,3884,314,100655
12:7:19.905,17805,469.7265625,1048.828125,-401.3671875,1.8362609060232342,-0.6731734924942129,-3.5760051044111822,-1350,-1413,-1143,3884,314,100655
12:7:19.925,17806,433.59375,988.28125,-430.6640625,1.8741345507915113,-0.6572909963010646,-3.604104905368291,-1350,-1413,-1143,3884,314,100655
12:7:19.946,17807,404.296875,944.3359375,-437.5,1.7421876593407397,-0.6719517620178169,-3.6334264368017957,-1350,-1413,-1143,3884,314,100655
12:7:19.966,17808,333.984375,925.78125,-460.9375,1.8216001403064819,-0.6963863715457376,-3.660304507282508,-1449,-1375,-1075,3884,314,100655
12:7:19.976,17809,315.4296875,915.0390625,-504.8828125,1.9352210746113128,-0.7367034772668065,-3.6932912301452006,-1449,-1375,-1075,3884,314,100655
12:7:19.996,17810,238.28125,788.0859375,-517.578125,1.9938641374783221,-0.7880161572754398,-3.627317784419815,-1449,-1375,-1075,3884,314,100655
12:7:20.38,17811,151.3671875,697.265625,-521.484375,1.789835147920185,-0.8283332629965089,-3.5222489634497567,-1449,-1375,-1075,3884,314,100655
12:7:20.58,17812,93.75,677.734375,-536.1328125,1.5760323145508797,-0.833220184902093,-3.4098497596213218,-1449,-1375,-1075,3884,314,100655
12:7:20.68,17813,60.546875,713.8671875,-573.2421875,1.6139059593191567,-0.8576547944300136,-3.3060026691276594,-1557,-1380,-1008,3884,314,100655
12:7:20.88,17814,2.9296875,734.375,-598.6328125,1.8167132184008978,-0.8857545953871224,-3.2607986415010055,-1557,-1380,-1008,3884,314,100655
