Timestamp,SampleNr,AccX [mg],AccY [mg],AccZ [mg],GyrX [rad/s],GyrY [rad/s],GyrZ [rad/s],MagX [mGs],MagY [mGs],-MagZ [mGs],Battery [mV],Temperature [0.1C],Pressure[Pa]
11:53:22.450,19189,147.4609375,559.5703125,-788.0859375,0.01832595714594046,-0.04398229715025711,-0.010995574287564277,-1714,-514,703,4078,319,100679
11:53:22.470,19190,150.390625,553.7109375,-800.78125,-0.012217304763960306,-0.039095375244672985,-0.004886921905584123,-1714,-514,703,4078,319,100679
11:53:22.491,19191,150.390625,586.9140625,-793.9453125,-0.02809980095710871,-0.03420845333908886,-0.023212879051524585,-1714,-514,703,4078,319,100679
11:53:22.501,19192,142.578125,588.8671875,-802.734375,0.0012217304763960308,-0.03787364476827696,-0.014660765716752368,-1714,-514,703,4078,319,100679
11:53:22.563,19193,145.5078125,562.5,-805.6640625,0.003665191429188092,-0.04398229715025711,-0.006108652381980153,-1708,-513,699,4078,319,100679
11:53:22.583,19194,150.390625,555.6640625,-791.9921875,-0.024434609527920613,-0.04520402762665313,-0.004886921905584123,-1708,-513,699,4078,319,100679
11:53:22.594,19195,149.4140625,555.6640625,-791.9921875,-0.07086036763096978,-0.04520402762665313,-0.0158824961931484,-1708,-513,699,4078,319,100679
11:53:22.614,19196,151.3671875,586.9140625,-789.0625,-0.05497787143782139,-0.048869219055841226,-0.0024434609527920616,-1708,-513,699,4078,319,100679
11:53:22.635,19197,152.34375,582.03125,-791.9921875,0.0024434609527920616,-0.03420845333908886,0.0012217304763960308,-1708,-513,699,4078,319,100679
11:53:22.655,19198,151.3671875,583.0078125,-791.9921875,0.023212879051524585,-0.0476474885794452,0.010995574287564277,-1710,-517,706,4078,319,100679
11:53:22.666,19199,147.4609375,558.59375,-807.6171875,0.012217304763960306,-0.04031710572106901,0.01832595714594046,-1710,-517,706,4078,319,100679
11:53:22.686,19200,144.53125,544.921875,-797.8515625,-0.04153883619746505,-0.04520402762665313,-0.0012217304763960308,-1710,-517,706,4078,319,100679
11:53:22.706,19201,147.4609375,566.40625,-800.78125,-0.05497787143782139,-0.03787364476827696,-0.004886921905584123,-1710,-517,706,4078,319,100679
11:53:22.727,19202,151.3671875,599.609375,-789.0625,-0.05742133239061345,-0.05009094953223726,-0.004886921905584123,-1710,-517,706,4066,319,100675
11:53:22.747,19203,142.578125,593.75,-791.9921875,0.010995574287564277,-0.05375614096142535,-0.012217304763960306,-1713,-513,715,4066,319,100675
11:53:22.757,19204,144.53125,577.1484375,-796.875,0.048869219055841226,-0.04153883619746505,-0.003665191429188092,-1713,-513,715,4066,319,100675
11:53:22.777,19205,150.390625,558.59375,-800.78125,-0.003665191429188092,-0.03543018381548489,-0.021991148575128554,-1713,-513,715,4066,319,100675
11:53:22.798,19206,147.4609375,556.640625,-800.78125,-0.0671951762017817,-0.051312680008633295,-0.03298672286269283,-1713,-513,715,4066,319,100675
11:53:22.818,19207,146.484375,593.75,-791.015625,-0.06475171524898964,-0.0476474885794452,-0.0317649923862968,-1709,-514,710,4066,319,100675
11:53:22.838,19208,132.8125,576.171875,-793.9453125,-0.0012217304763960308,-0.039095375244672985,-0.03054326190990077,-1709,-514,710,4066,319,100675
11:53:22.848,19209,149.4140625,571.2890625,-807.6171875,0.01710422666954443,-0.026878070480712675,-0.020769418098732523,-1709,-514,710,4066,319,100675
11:53:22.869,19210,151.3671875,583.984375,-797.8515625,-0.014660765716752368,-0.04276056667386108,-0.01832595714594046,-1709,-514,710,4066,319,100675
11:53:22.910,19211,142.578125,589.84375,-798.828125,-0.012217304763960306,-0.03420845333908886,-0.01710422666954443,-1709,-514,710,4066,319,100675
11:53:22.920,19212,146.484375,578.125,-803.7109375,-0.04276056667386108,-0.0317649923862968,-0.01832595714594046,-1712,-514,704,4066,319,100675
11:53:22.940,19213,149.4140625,588.8671875,-801.7578125,-0.03054326190990077,-0.020769418098732523,-0.0158824961931484,-1712,-514,704,4066,319,100675
11:53:22.961,19214,147.4609375,594.7265625,-794.921875,0.012217304763960306,-0.029321531433504737,-0.0024434609527920616,-1712,-514,704,4066,319,100675
11:53:22.981,19215,150.390625,567.3828125,-798.828125,0.026878070480712675,-0.024434609527920613,0.0012217304763960308,-1712,-514,704,4066,319,100675
11:53:23.1,19216,151.3671875,561.5234375,-800.78125,0.0,-0.021991148575128554,0.0012217304763960308,-1712,-514,704,4066,319,100675
11:53:23.12,19217,146.484375,586.9140625,-801.7578125,-0.013439035240356337,-0.013439035240356337,0.008552113334772215,-1711,-516,701,4066,319,100675
11:53:23.32,19218,150.390625,577.1484375,-791.9921875,0.0158824961931484,-0.029321531433504737,0.014660765716752368,-1711,-516,701,4066,319,100675
11:53:23.52,19219,152.34375,571.2890625,-788.0859375,0.024434609527920613,-0.029321531433504737,0.020769418098732523,-1711,-516,701,4066,319,100675
11:53:23.73,19220,143.5546875,557.6171875,-797.8515625,0.024434609527920613,-0.02809980095710871,0.01710422666954443,-1711,-516,701,4066,319,100675
11:53:23.104,19221,148.4375,561.5234375,-794.921875,-0.007330382858376184,-0.03420845333908886,0.003665191429188092,-1706,-516,709,4066,319,100675
11:53:23.124,19222,150.390625,582.03125,-796.875,-0.04153883619746505,-0.04031710572106901,0.009773843811168246,-1706,-516,709,4066,319,100675
11:53:23.144,19223,149.4140625,588.8671875,-791.9921875,-0.010995574287564277,-0.0317649923862968,0.004886921905584123,-1706,-516,709,4066,319,100675
11:53:23.165,19224,157.2265625,578.125,-797.8515625,0.024434609527920613,-0.03420845333908886,0.007330382858376184,-1706,-516,709,4066,319,100675
11:53:23.175,19225,155.2734375,577.1484375,-795.8984375,0.0317649923862968,-0.04031710572106901,0.0012217304763960308,-1706,-516,709,4066,319,100675
11:53:23.195,19226,146.484375,561.5234375,-795.8984375,0.01832595714594046,-0.01710422666954443,-0.008552113334772215,-1707,-513,703,4066,319,100675
11:53:23.216,19227,150.390625,554.6875,-793.9453125,-0.026878070480712675,-0.0317649923862968,-0.007330382858376184,-1707,-513,703,4066,319,100675
11:53:23.236,19228,148.4375,558.59375,-798.828125,-0.020769418098732523,-0.02809980095710871,-0.004886921905584123,-1707,-513,703,4066,319,100675
11:53:23.256,19229,150.390625,566.40625,-803.7109375,-0.0158824961931484,-0.029321531433504737,-0.01710422666954443,-1707,-513,703,4066,319,100675
11:53:23.267,19230,149.4140625,586.9140625,-795.8984375,-0.010995574287564277,-0.04153883619746505,-0.012217304763960306,-1707,-513,703,4066,319,100675
11:53:23.287,19231,153.3203125,572.265625,-793.9453125,0.0012217304763960308,-0.03543018381548489,-0.007330382858376184,-1709,-520,709,4066,319,100675
11:53:23.307,19232,153.3203125,561.5234375,-797.8515625,-0.013439035240356337,-0.04153883619746505,-0.013439035240356337,-1709,-520,709,4066,319,100675
11:53:23.328,19233,156.25,567.3828125,-794.921875,-0.0158824961931484,-0.04398229715025711,-0.014660765716752368,-1709,-520,709,4066,319,100675
11:53:23.348,19234,152.34375,575.1953125,-781.25,-0.006108652381980153,-0.03543018381548489,0.003665191429188092,-1709,-520,709,4066,319,100675
11:53:23.358,19235,150.390625,560.546875,-797.8515625,0.012217304763960306,-0.03665191429188092,-0.010995574287564277,-1702,-514,708,4066,319,100675
11:53:23.378,19236,153.3203125,566.40625,-795.8984375,-0.003665191429188092,-0.0476474885794452,-0.008552113334772215,-1702,-514,708,4066,319,100675
11:53:23.398,19237,147.4609375,554.6875,-802.734375,-0.021991148575128554,-0.05009094953223726,-0.012217304763960306,-1702,-514,708,4066,319,100675
11:53:23.419,19238,153.3203125,560.546875,-799.8046875,-0.024434609527920613,-0.058643062867009474,-0.0012217304763960308,-1702,-514,708,4066,319,100675
11:53:23.439,19239,155.2734375,568.359375,-785.15625,0.004886921905584123,-0.05986479334340551,-0.014660765716752368,-1702,-514,708,4066,319,100675
11:53:23.449,19240,145.5078125,556.640625,-780.2734375,0.03665191429188092,-0.0635299847725936,-0.004886921905584123,-1706,-516,709,4066,319,100675
11:53:23.470,19241,150.390625,561.5234375,-783.203125,0.023212879051524585,-0.09651670763528641,-0.020769418098732523,-1706,-516,709,4066,319,100675
11:53:23.490,19242,148.4375,573.2421875,-764.6484375,0.04031710572106901,-0.12828170002158323,-0.03298672286269283,-1706,-516,709,4066,319,100675
11:53:23.510,19243,134.765625,542.96875,-765.625,0.06475171524898964,-0.1551597705022959,-0.04520402762665313,-1706,-516,709,4066,319,100675
11:53:23.531,19244,148.4375,535.15625,-764.6484375,0.06597344572538566,-0.18448130193580062,-0.05986479334340551,-1706,-516,709,4066,319,100675
11:53:23.541,19245,143.5546875,536.1328125,-753.90625,0.06597344572538566,-0.19669860669976097,-0.06108652381980154,-1712,-519,701,4066,319,100675
11:53:23.561,19246,141.6015625,532.2265625,-759.765625,0.07086036763096978,-0.22602013813326569,-0.07819075048934597,-1712,-519,701,4066,319,100675
11:53:23.582,19247,139.6484375,520.5078125,-773.4375,0.023212879051524585,-0.2541199390903744,-0.10018189906447451,-1712,-519,701,4066,319,100675
11:53:23.602,19248,136.71875,541.015625,-781.25,0.010995574287564277,-0.27977627909469105,-0.12583823906879116,-1712,-519,701,4066,319,100675
11:53:23.612,19249,115.234375,553.7109375,-773.4375,0.03298672286269283,-0.2919935838586513,-0.12217304763960309,-1720,-524,704,4066,319,100675
11:53:23.633,19250,111.328125,541.015625,-784.1796875,0.05986479334340551,-0.3090978105281958,-0.15271630954950383,-1720,-524,704,4066,319,100675
11:53:23.653,19251,114.2578125,549.8046875,-806.640625,0.024434609527920613,-0.3481931857728688,-0.17837264955382048,-1720,-524,704,4066,319,100675
11:53:23.673,19252,111.328125,564.453125,-795.8984375,0.04642575810304917,-0.37140606482439337,-0.17470745812463243,-1720,-524,704,4078,319,100686
11:53:23.694,19253,98.6328125,561.5234375,-776.3671875,0.1551597705022959,-0.40072759625789806,-0.17226399717184035,-1720,-524,704,4078,319,100686
11:53:23.704,19254,83.0078125,533.203125,-780.2734375,0.2748893571891069,-0.43860124102617504,-0.197920337176157,-1728,-529,717,4078,319,100686
11:53:23.724,19255,69.3359375,516.6015625,-801.7578125,0.27977627909469105,-0.5106833391335408,-0.2296853295624538,-1728,-529,717,4078,319,100686
11:53:23.745,19256,63.4765625,524.4140625,-763.671875,0.24556782575560218,-0.5387831400906496,-0.2431243648028101,-1728,-529,717,4078,319,100686
11:53:23.765,19257,55.6640625,530.2734375,-758.7890625,0.2883283924294633,-0.5656612105713622,-0.2223549467040776,-1728,-529,717,4078,319,100686
11:53:23.775,19258,53.7109375,533.203125,-776.3671875,0.3042108886226117,-0.6035348553396392,-0.2076941809873252,-1728,-529,717,4078,319,100686
11:53:23.795,19259,26.3671875,532.2265625,-781.25,0.2651155133779387,-0.6218608124855797,-0.2162462943220974,-1749,-542,716,4078,319,100686
11:53:23.816,19260,8.7890625,508.7890625,-805.6640625,0.27611108766550296,-0.6389650391551241,-0.22479840765686968,-1749,-542,716,4078,319,100686
11:53:23.836,19261,2.9296875,506.8359375,-812.5,0.23945917337362205,-0.6670648401122328,-0.22602013813326569,-1749,-542,716,4078,319,100686
11:53:23.857,19262,-11.71875,483.3984375,-815.4296875,0.1734857276482364,-0.6743952229706089,-0.23212879051524585,-1749,-542,716,4078,319,100686
11:53:23.887,19263,-16.6015625,494.140625,-800.78125,0.14905111812031577,-0.6976081020221336,-0.22724186860966175,-1778,-552,710,4078,319,100686
11:53:23.908,19264,-50.78125,494.140625,-835.9375,0.10506882097005865,-0.6866125277345693,-0.2296853295624538,-1778,-552,710,4078,319,100686
11:53:23.928,19265,-43.9453125,500.9765625,-834.9609375,0.1038470904936626,-0.7073819458333017,-0.24434609527920617,-1778,-552,710,4078,319,100686
11:53:23.948,19266,-47.8515625,506.8359375,-815.4296875,0.13316862192716736,-0.7110471372624899,-0.2309070600388498,-1778,-552,710,4078,319,100686
11:53:23.959,19267,-80.078125,491.2109375,-839.84375,0.10018189906447451,-0.6988298324985297,-0.2431243648028101,-1778,-552,710,4078,319,100686
11:53:23.979,19268,-92.7734375,475.5859375,-850.5859375,0.0476474885794452,-0.7024950239277178,-0.24556782575560218,-1801,-553,708,4078,319,100686
11:53:23.999,19269,-90.8203125,491.2109375,-840.8203125,-0.013439035240356337,-0.7342600163140146,-0.26267205242514663,-1801,-553,708,4078,319,100686
11:53:24.19,19270,-102.5390625,494.140625,-823.2421875,-0.0024434609527920616,-0.7086036763096979,-0.2871066619530672,-1801,-553,708,4078,319,100686
11:53:24.30,19271,-131.8359375,495.1171875,-829.1015625,0.04398229715025711,-0.6963863715457376,-0.2919935838586513,-1801,-553,708,4078,319,100686
11:53:24.50,19272,-157.2265625,479.4921875,-816.40625,0.0635299847725936,-0.7134905982152819,-0.31520646291017596,-1801,-553,708,4078,319,100686
11:53:24.70,19273,-164.0625,466.796875,-801.7578125,0.03787364476827696,-0.7354817467904105,-0.3335324200561164,-1835,-568,705,4078,319,100686
11:53:24.91,19274,-183.59375,440.4296875,-814.453125,-0.10140362954087055,-0.7721336610822913,-0.3640756819660172,-1835,-568,705,4078,319,100686
11:53:24.111,19275,-176.7578125,476.5625,-778.3203125,-0.1478293876439197,-0.8136724972797564,-0.39828413530510604,-1835,-568,705,4078,319,100686
11:53:24.121,19276,-230.46875,517.578125,-761.71875,-0.04276056667386108,-0.8210028801381327,-0.4056145181634822,-1835,-568,705,4078,319,100686
11:53:24.162,19277,-223.6328125,439.453125,-740.234375,0.058643062867009474,-0.8429940287132612,-0.4398229715025711,-1835,-568,705,4078,319,100686
11:53:24.182,19278,-235.3515625,385.7421875,-748.046875,-0.012217304763960306,-0.9285151620609834,-0.4557054676957195,-1861,-572,679,4078,319,100686
11:53:24.202,19279,-334.9609375,425.78125,-791.9921875,-0.04520402762665313,-0.9676105373056564,-0.46303585055409563,-1861,-572,679,4078,319,100686
11:53:24.212,19280,-343.75,510.7421875,-785.15625,0.16859880574265224,-1.0396926354130223,-0.5131268000863329,-1861,-572,679,4078,319,100686
11:53:24.233,19281,-267.578125,500.0,-743.1640625,0.40805797911627434,-1.1484266478122689,-0.553443905807402,-1861,-572,679,4078,319,100686
11:53:24.253,19282,-263.671875,462.890625,-732.421875,0.6328563867731439,-1.1679743354346053,-0.560774288665778,-1906,-585,666,4078,319,100686
11:53:24.273,19283,-410.15625,387.6953125,-781.25,0.6719517620178169,-1.194852405915318,-0.48991392103480835,-1906,-585,666,4078,319,100686
11:53:24.303,19284,-437.5,442.3828125,-787.109375,0.8662069077647858,-1.2510520078295355,-0.4948008429403924,-1906,-585,666,4078,319,100686
11:53:24.323,19285,-401.3671875,473.6328125,-775.390625,1.2400564335419713,-1.317025453554921,-0.5705481324769464,-1906,-585,666,4078,319,100686
11:53:24.344,19286,-376.953125,346.6796875,-730.46875,1.26815623449908,-1.303586418314565,-0.5632177496185702,-1906,-585,666,4078,319,100686
11:53:24.364,19287,-487.3046875,198.2421875,-738.28125,0.9395107363485476,-1.2913691135506045,-0.5461135229490258,-1945,-615,652,4078,319,100686
11:53:24.384,19288,-545.8984375,172.8515625,-834.9609375,0.5876523591464908,-1.3622294811815745,-0.5021312257987687,-1945,-615,652,4078,319,100686
11:53:24.395,19289,-545.8984375,276.3671875,-797.8515625,0.4471533543609472,-1.4135421611902077,-0.5424483315198376,-1945,-615,652,4078,319,100686
11:53:24.415,19290,-545.8984375,335.9375,-738.28125,0.5522221753310059,-1.3720033249927428,-0.5852088981936987,-1945,-615,652,4078,319,100686
11:53:24.456,19291,-575.1953125,336.9140625,-730.46875,0.6133086991508074,-1.308473340220149,-0.5998696639104512,-1945,-615,652,4078,319,100686
11:53:24.466,19292,-616.2109375,249.0234375,-691.40625,0.4813618077000361,-1.3206906449841092,-0.55100044485461,-1989,-659,617,4078,319,100686
11:53:24.487,19293,-666.9921875,125.9765625,-732.421875,0.06108652381980154,-1.4049900478554356,-0.4850269991292242,-1989,-659,617,4078,319,100686
11:53:24.507,19294,-732.421875,243.1640625,-771.484375,-0.20891591146372127,-1.430646387859752,-0.516791991515521,-1989,-659,617,4078,319,100686
11:53:24.527,19295,-705.078125,396.484375,-708.0078125,-0.07452555906015788,-1.390329282138683,-0.6072000467688273,-1989,-659,617,4078,319,100686
11:53:24.547,19296,-679.6875,361.328125,-666.015625,0.32498030672134415,-1.3377948716536536,-0.6194173515327875,-2031,-688,577,4078,319,100686
11:53:24.557,19297,-703.125,281.25,-609.375,0.40194932673429407,-1.3280210278424853,-0.5754350543825305,-2031,-688,577,4078,319,100686
11:53:24.578,19298,-795.8984375,149.4140625,-658.203125,0.20036379812894903,-1.3768902468983266,-0.5338962181850655,-2031,-688,577,4078,319,100686
11:53:24.598,19299,-838.8671875,207.03125,-680.6640625,0.09285151620609834,-1.4391985011945243,-0.5253441048502933,-2031,-688,577,4078,319,100686
11:53:24.619,19300,-839.84375,242.1875,-636.71875,0.18570303241219668,-1.3695598640399507,-0.5229006438975012,-2031,-688,577,4078,319,100686
11:53:24.639,19301,-836.9140625,212.890625,-625.9765625,0.33964107243809655,-1.3341296802244655,-0.514348530562729,-2062,-715,533,4078,319,100686
11:53:24.649,19302,-833.0078125,166.9921875,-586.9140625,0.22479840765686968,-1.3781119773747228,-0.4948008429403924,-2062,-715,533,4072,319,100683
11:53:24.670,19303,-860.3515625,66.40625,-651.3671875,0.0635299847725936,-1.423316005001376,-0.4471533543609472,-2062,-715,533,4072,319,100683
11:53:24.690,19304,-887.6953125,152.34375,-613.28125,0.15638150097869194,-1.4599679192932566,-0.40072759625789806,-2062,-715,533,4072,319,100683
11:53:24.721,19305,-935.546875,143.5546875,-550.78125,0.3677408733952052,-1.3707815945163466,-0.35063664672566086,-2062,-715,533,4072,319,100683
11:53:24.741,19306,-915.0390625,121.09375,-492.1875,0.37140606482439337,-1.3341296802244655,-0.3775147172063735,-2087,-733,489,4072,319,100683
11:53:24.792,19307,-877.9296875,99.609375,-463.8671875,0.19669860669976097,-1.3524556373704062,-0.40317105721069013,-2087,-733,489,4072,319,100683
11:53:24.945,19308,-851.5625,74.21875,-490.234375,0.07574728953655392,-1.3658946726107624,-0.41783182292744253,-2087,-733,489,4072,319,100683
11:53:24.966,19309,-846.6796875,145.5078125,-472.65625,-0.03787364476827696,-1.2889256525978126,-0.4056145181634822,-2087,-733,489,4072,319,100683
11:53:24.976,19310,-855.46875,195.3125,-413.0859375,-0.07941248096574201,-1.227839128778011,-0.3872885610175418,-2109,-749,437,4072,319,100683
11:53:24.996,19311,-875.9765625,245.1171875,-361.328125,-0.1343903524035634,-1.1826351011513576,-0.3640756819660172,-2109,-749,437,4072,319,100683
11:53:25.17,19312,-943.359375,194.3359375,-380.859375,-0.17470745812463243,-1.189965484009734,-0.35918876006043304,-2109,-749,437,4072,319,100683
11:53:25.38,19313,-1007.8125,151.3671875,-425.78125,-0.04520402762665313,-1.11421819447318,-0.37018433434799736,-2109,-749,437,4072,319,100683
11:53:25.58,19314,-999.0234375,174.8046875,-429.6875,0.058643062867009474,-1.0458012877950025,-0.3445279943436807,-2109,-749,437,4072,319,100683
11:53:25.68,19315,-971.6796875,157.2265625,-419.921875,0.12461650859239513,-1.0128145649323095,-0.33597588100890846,-2121,-764,381,4072,319,100683
11:53:25.88,19316,-951.171875,143.5546875,-396.484375,0.1942551457469689,-0.9737191896876365,-0.3139847324337799,-2121,-764,381,4072,319,100683
11:53:25.109,19317,-956.0546875,114.2578125,-354.4921875,0.20891591146372127,-0.9358455449193596,-0.2712241657599188,-2121,-764,381,4072,319,100683
11:53:25.129,19318,-976.5625,111.328125,-329.1015625,0.17837264955382048,-0.8820894039579342,-0.2467895562319982,-2121,-764,381,4072,319,100683
11:53:25.139,19319,-993.1640625,129.8828125,-299.8046875,0.24923301718479027,-0.836885376331281,-0.2101376419401173,-2121,-764,381,4072,319,100683
11:53:25.160,19320,-1038.0859375,58.59375,-280.2734375,0.33719761148530447,-0.7648032782239153,-0.12950343049797927,-2117,-781,348,4072,319,100683
11:53:25.180,19321,-1040.0390625,8.7890625,-275.390625,0.35552356863124496,-0.6670648401122328,-0.08552113334772216,-2117,-781,348,4072,319,100683
11:53:25.200,19322,-1010.7421875,-10.7421875,-297.8515625,0.2577851305195625,-0.6243042734383717,-0.07941248096574201,-2117,-781,348,4072,319,100683
11:53:25.221,19323,-1012.6953125,7.8125,-288.0859375,0.13805554383275148,-0.5803219762881145,-0.025656340004316647,-2117,-781,348,4072,319,100683
11:53:25.231,19324,-1054.6875,14.6484375,-244.140625,0.006108652381980153,-0.4948008429403924,-0.003665191429188092,-2121,-788,315,4072,319,100683
11:53:25.251,19325,-1044.921875,33.203125,-238.28125,-0.008552113334772215,-0.42638393626221477,0.03054326190990077,-2121,-788,315,4072,319,100683
11:53:25.272,19326,-1015.625,67.3828125,-244.140625,0.020769418098732523,-0.4056145181634822,0.04276056667386108,-2121,-788,315,4072,319,100683
11:53:25.292,19327,-979.4921875,94.7265625,-222.65625,0.05375614096142535,-0.36651914291880927,0.04398229715025711,-2121,-788,315,4072,319,100683
11:53:25.312,19328,-968.75,101.5625,-188.4765625,0.1038470904936626,-0.31642819338657197,0.026878070480712675,-2121,-788,315,4072,319,100683
11:53:25.323,19329,-963.8671875,49.8046875,-159.1796875,0.12217304763960309,-0.2675589743307307,0.003665191429188092,-2121,-786,294,4072,319,100683
11:53:25.343,19330,-979.4921875,10.7421875,-171.875,0.05742133239061345,-0.23335052099164189,-0.004886921905584123,-2121,-786,294,4072,319,100683
11:53:25.363,19331,-975.5859375,46.875,-180.6640625,0.003665191429188092,-0.20891591146372127,-0.029321531433504737,-2121,-786,294,4072,319,100683
11:53:25.383,19332,-968.75,51.7578125,-173.828125,-0.019547687622336492,-0.18570303241219668,-0.03298672286269283,-2121,-786,294,4072,319,100683
11:53:25.393,19333,-974.609375,61.5234375,-165.0390625,0.06475171524898964,-0.1734857276482364,-0.029321531433504737,-2121,-786,294,4072,319,100683
11:53:25.414,19334,-989.2578125,41.015625,-157.2265625,0.10140362954087055,-0.16982053621904827,-0.026878070480712675,-2123,-791,286,4072,319,100683
11:53:25.434,19335,-986.328125,36.1328125,-169.921875,0.14905111812031577,-0.1478293876439197,-0.04520402762665313,-2123,-791,286,4072,319,100683
11:53:25.454,19336,-991.2109375,36.1328125,-167.96875,0.1270599695451872,-0.14905111812031577,-0.051312680008633295,-2123,-791,286,4072,319,100683
11:53:25.474,19337,-998.046875,18.5546875,-138.671875,0.06475171524898964,-0.13316862192716736,-0.0671951762017817,-2123,-791,286,4072,319,100683
11:53:25.484,19338,-994.140625,16.6015625,-134.765625,0.02809980095710871,-0.1148426647812269,-0.08918632477691024,-2121,-790,285,4072,319,100683
11:53:25.505,19339,-990.234375,49.8046875,-141.6015625,0.03543018381548489,-0.11728612573401895,-0.08918632477691024,-2121,-790,285,4072,319,100683
11:53:25.525,19340,-982.421875,61.5234375,-117.1875,0.02809980095710871,-0.12461650859239513,-0.09407324668249437,-2121,-790,285,4072,319,100683
11:53:25.546,19341,-987.3046875,44.921875,-117.1875,0.04031710572106901,-0.11728612573401895,-0.08796459430051422,-2121,-790,285,4072,319,100683
11:53:25.566,19342,-989.2578125,32.2265625,-125.9765625,0.029321531433504737,-0.11606439525762292,-0.08918632477691024,-2121,-790,285,4072,319,100683
11:53:25.576,19343,-990.234375,23.4375,-133.7890625,0.006108652381980153,-0.11850785621041499,-0.09407324668249437,-2119,-790,279,4072,319,100683
11:53:25.596,19344,-993.1640625,39.0625,-138.671875,0.026878070480712675,-0.1233947781159991,-0.0830776723949301,-2119,-790,279,4072,319,100683
11:53:25.616,19345,-989.2578125,35.15625,-123.046875,0.04153883619746505,-0.12950343049797927,-0.0671951762017817,-2119,-790,279,4072,319,100683
11:53:25.637,19346,-996.09375,4.8828125,-115.234375,0.019547687622336492,-0.1075122819228507,-0.0635299847725936,-2119,-790,279,4072,319,100683
11:53:25.657,19347,-995.1171875,13.671875,-133.7890625,-0.048869219055841226,-0.07941248096574201,-0.05986479334340551,-2119,-790,279,4072,319,100683
11:53:25.667,19348,-989.2578125,38.0859375,-140.625,-0.09407324668249437,-0.07330382858376185,-0.04520402762665313,-2119,-793,278,4072,319,100683
11:53:25.687,19349,-989.2578125,55.6640625,-138.671875,-0.07941248096574201,-0.07574728953655392,-0.0317649923862968,-2119,-793,278,4072,319,100683
11:53:25.708,19350,-991.2109375,45.8984375,-128.90625,-0.010995574287564277,-0.0635299847725936,-0.026878070480712675,-2119,-793,278,4072,319,100683
11:53:25.728,19351,-986.328125,21.484375,-138.671875,0.03420845333908886,-0.05497787143782139,-0.008552113334772215,-2119,-793,278,4072,319,100683
11:53:25.738,19352,-984.375,24.4140625,-143.5546875,0.019547687622336492,-0.048869219055841226,-0.009773843811168246,-2117,-792,274,4066,319,100682
11:53:25.758,19353,-991.2109375,41.015625,-133.7890625,0.012217304763960306,-0.04398229715025711,-0.01710422666954443,-2117,-792,274,4066,319,100682
11:53:25.779,19354,-995.1171875,41.015625,-106.4453125,0.019547687622336492,-0.03543018381548489,-0.0158824961931484,-2117,-792,274,4066,319,100682
11:53:25.799,19355,-999.0234375,13.671875,-114.2578125,0.0317649923862968,-0.021991148575128554,-0.008552113334772215,-2117,-792,274,4066,319,100682
11:53:25.819,19356,-983.3984375,19.53125,-125.0,0.025656340004316647,-0.03420845333908886,-0.012217304763960306,-2117,-792,274,4066,319,100682
11:53:25.829,19357,-978.515625,24.4140625,-124.0234375,0.009773843811168246,-0.03665191429188092,-0.007330382858376184,-2121,-792,272,4066,319,100682
11:53:25.849,19358,-982.421875,28.3203125,-123.046875,0.039095375244672985,-0.026878070480712675,-0.003665191429188092,-2121,-792,272,4066,319,100682
11:53:25.869,19359,-985.3515625,15.625,-117.1875,0.03420845333908886,-0.029321531433504737,0.004886921905584123,-2121,-792,272,4066,319,100682
11:53:25.890,19360,-989.2578125,19.53125,-118.1640625,0.024434609527920613,-0.0317649923862968,0.004886921905584123,-2121,-792,272,4066,319,100682
11:53:25.910,19361,-986.328125,33.203125,-119.140625,-0.0024434609527920616,-0.03298672286269283,0.0024434609527920616,-2121,-792,272,4066,319,100682
11:53:25.920,19362,-983.3984375,37.109375,-122.0703125,0.0024434609527920616,-0.03665191429188092,0.0012217304763960308,-2119,-798,270,4066,319,100682
11:53:25.940,19363,-985.3515625,23.4375,-122.0703125,0.020769418098732523,-0.0317649923862968,0.009773843811168246,-2119,-798,270,4066,319,100682
11:53:25.961,19364,-990.234375,14.6484375,-126.953125,0.039095375244672985,-0.04153883619746505,0.012217304763960306,-2119,-798,270,4066,319,100682
11:53:25.981,19365,-981.4453125,17.578125,-123.046875,0.029321531433504737,-0.03665191429188092,0.0012217304763960308,-2119,-798,270,4066,319,100682
11:53:26.2,19366,-986.328125,27.34375,-119.140625,0.01710422666954443,-0.04031710572106901,-0.0024434609527920616,-2119,-798,270,4066,319,100682
11:53:26.12,19367,-988.28125,19.53125,-119.140625,-0.014660765716752368,-0.051312680008633295,0.0012217304763960308,-2118,-796,282,4066,319,100682
11:53:26.32,19368,-981.4453125,18.5546875,-121.09375,0.010995574287564277,-0.03665191429188092,0.0012217304763960308,-2118,-796,282,4066,319,100682
11:53:26.53,19369,-982.421875,23.4375,-129.8828125,0.003665191429188092,-0.03054326190990077,0.012217304763960306,-2118,-796,282,4066,319,100682
11:53:26.73,19370,-981.4453125,28.3203125,-125.0,-0.008552113334772215,-0.051312680008633295,0.0024434609527920616,-2118,-796,282,4066,319,100682
11:53:26.83,19371,-984.375,20.5078125,-118.1640625,-0.007330382858376184,-0.0476474885794452,-0.003665191429188092,-2113,-798,275,4066,319,100682
11:53:26.124,19372,-988.28125,14.6484375,-118.1640625,-0.0024434609527920616,-0.029321531433504737,-0.003665191429188092,-2113,-798,275,4066,319,100682
11:53:26.144,19373,-989.2578125,16.6015625,-126.953125,-0.03787364476827696,-0.03543018381548489,-0.010995574287564277,-2113,-798,275,4066,319,100682
11:53:26.165,19374,-979.4921875,20.5078125,-122.0703125,-0.048869219055841226,-0.03787364476827696,-0.007330382858376184,-2113,-798,275,4066,319,100682
11:53:26.175,19375,-980.46875,21.484375,-124.0234375,-0.03665191429188092,-0.03543018381548489,0.0024434609527920616,-2113,-798,275,4066,319,100682
11:53:26.195,19376,-992.1875,23.4375,-120.1171875,-0.04153883619746505,-0.04153883619746505,-0.010995574287564277,-2123,-797,273,4066,319,100682
11:53:26.216,19377,-996.09375,25.390625,-121.09375,-0.03787364476827696,-0.05497787143782139,-0.03054326190990077,-2123,-797,273,4066,319,100682
11:53:26.236,19378,-987.3046875,26.3671875,-124.0234375,-0.04153883619746505,-0.05742133239061345,-0.021991148575128554,-2123,-797,273,4066,319,100682
11:53:26.257,19379,-981.4453125,26.3671875,-125.9765625,-0.014660765716752368,-0.05619960191421742,-0.004886921905584123,-2123,-797,273,4066,319,100682
11:53:26.267,19380,-980.46875,18.5546875,-119.140625,-0.01710422666954443,-0.052534410485029326,-0.009773843811168246,-2123,-797,273,4066,319,100682
11:53:26.287,19381,-976.5625,12.6953125,-121.09375,-0.03665191429188092,-0.06108652381980154,-0.003665191429188092,-2122,-797,279,4066,319,100682
11:53:26.348,19382,-979.4921875,22.4609375,-125.9765625,-0.05009094953223726,-0.05375614096142535,-0.0317649923862968,-2122,-797,279,4066,319,100682
11:53:26.358,19383,-983.3984375,25.390625,-123.046875,-0.05742133239061345,-0.05742133239061345,-0.01832595714594046,-2122,-797,279,4066,319,100682
11:53:26.379,19384,-992.1875,28.3203125,-125.9765625,-0.03543018381548489,-0.05009094953223726,-0.008552113334772215,-2122,-797,279,4066,319,100682
11:53:26.399,19385,-989.2578125,22.4609375,-130.859375,-0.05009094953223726,-0.052534410485029326,-0.003665191429188092,-2121,-795,277,4066,319,100682
11:53:26.419,19386,-986.328125,23.4375,-128.90625,-0.05497787143782139,-0.05497787143782139,-0.003665191429188092,-2121,-795,277,4066,319,100682
11:53:26.429,19387,-993.1640625,37.109375,-123.046875,-0.03420845333908886,-0.052534410485029326,-0.006108652381980153,-2121,-795,277,4066,319,100682
11:53:26.450,19388,-990.234375,24.4140625,-115.234375,-0.03665191429188092,-0.04398229715025711,0.0,-2121,-795,277,4066,319,100682
11:53:26.470,19389,-989.2578125,20.5078125,-120.1171875,-0.026878070480712675,-0.048869219055841226,-0.0012217304763960308,-2121,-795,277,4066,319,100682
11:53:26.541,19390,-987.3046875,23.4375,-129.8828125,-0.03054326190990077,-0.05619960191421742,-0.0024434609527920616,-2117,-795,269,4066,319,100682
11:53:26.561,19391,-976.5625,26.3671875,-123.046875,-0.03543018381548489,-0.05375614096142535,-0.014660765716752368,-2117,-795,269,4066,319,100682
11:53:26.582,19392,-978.515625,23.4375,-117.1875,-0.019547687622336492,-0.051312680008633295,-0.010995574287564277,-2117,-795,269,4066,319,100682
11:53:26.602,19393,-982.421875,15.625,-123.046875,-0.026878070480712675,-0.051312680008633295,-0.014660765716752368,-2117,-795,269,4066,319,100682
11:53:26.612,19394,-980.46875,26.3671875,-122.0703125,-0.02809980095710871,-0.05497787143782139,-0.008552113334772215,-2117,-795,269,4066,319,100682
11:53:26.632,19395,-983.3984375,29.296875,-117.1875,-0.023212879051524585,-0.05742133239061345,-0.007330382858376184,-2122,-800,273,4066,319,100682
11:53:26.653,19396,-991.2109375,16.6015625,-122.0703125,-0.0024434609527920616,-0.05375614096142535,0.012217304763960306,-2122,-800,273,4066,319,100682
11:53:26.673,19397,-991.2109375,8.7890625,-122.0703125,-0.029321531433504737,-0.05742133239061345,-0.004886921905584123,-2122,-800,273,4066,319,100682
11:53:26.693,19398,-991.2109375,23.4375,-126.953125,-0.03543018381548489,-0.052534410485029326,-0.006108652381980153,-2122,-800,273,4066,319,100682
11:53:26.703,19399,-991.2109375,28.3203125,-121.09375,-0.024434609527920613,-0.05009094953223726,-0.010995574287564277,-2119,-799,267,4066,319,100682
11:53:26.723,19400,-993.1640625,17.578125,-114.2578125,-0.014660765716752368,-0.0476474885794452,0.0012217304763960308,-2119,-799,267,4066,319,100682
11:53:26.744,19401,-983.3984375,17.578125,-124.0234375,-0.020769418098732523,-0.0476474885794452,-0.010995574287564277,-2119,-799,267,4066,319,100682
11:53:26.764,19402,-981.4453125,24.4140625,-120.1171875,-0.04520402762665313,-0.052534410485029326,-0.0012217304763960308,-2119,-799,267,4072,319,100686
11:53:26.774,19403,-984.375,28.3203125,-120.1171875,-0.02809980095710871,-0.04520402762665313,-0.0012217304763960308,-2119,-799,267,4072,319,100686
11:53:26.794,19404,-996.09375,21.484375,-124.0234375,-0.01710422666954443,-0.039095375244672985,0.0024434609527920616,-2116,-797,281,4072,319,100686
11:53:26.814,19405,-985.3515625,21.484375,-120.1171875,-0.010995574287564277,-0.05497787143782139,0.009773843811168246,-2116,-797,281,4072,319,100686
11:53:26.835,19406,-989.2578125,18.5546875,-120.1171875,-0.014660765716752368,-0.05986479334340551,0.0158824961931484,-2116,-797,281,4072,319,100686
11:53:26.855,19407,-992.1875,10.7421875,-115.234375,-0.026878070480712675,-0.048869219055841226,0.0012217304763960308,-2116,-797,281,4072,319,100686
11:53:26.865,19408,-989.2578125,15.625,-118.1640625,-0.03665191429188092,-0.052534410485029326,0.008552113334772215,-2116,-797,281,4072,319,100686
11:53:26.886,19409,-996.09375,35.15625,-122.0703125,-0.04153883619746505,-0.04276056667386108,-0.0024434609527920616,-2116,-794,286,4072,319,100686
11:53:26.906,19410,-999.0234375,41.015625,-125.9765625,-0.01710422666954443,-0.05497787143782139,0.0024434609527920616,-2116,-794,286,4072,319,100686
11:53:26.926,19411,-997.0703125,34.1796875,-119.140625,0.010995574287564277,-0.05497787143782139,0.006108652381980153,-2116,-794,286,4072,319,100686
11:53:26.946,19412,-988.28125,11.71875,-116.2109375,0.024434609527920613,-0.04153883619746505,0.012217304763960306,-2116,-794,286,4072,319,100686
11:53:26.957,19413,-975.5859375,7.8125,-125.0,-0.020769418098732523,-0.04398229715025711,0.006108652381980153,-2117,-794,269,4072,319,100686
11:53:26.977,19414,-975.5859375,27.34375,-127.9296875,-0.0317649923862968,-0.0317649923862968,0.010995574287564277,-2117,-794,269,4072,319,100686
11:53:26.997,19415,-983.3984375,36.1328125,-124.0234375,-0.023212879051524585,-0.025656340004316647,0.020769418098732523,-2117,-794,269,4072,319,100686
11:53:27.18,19416,-988.28125,27.34375,-113.28125,0.01710422666954443,-0.039095375244672985,0.026878070480712675,-2117,-794,269,4072,319,100686
11:53:27.38,19417,-993.1640625,20.5078125,-117.1875,0.0158824961931484,-0.0317649923862968,0.019547687622336492,-2117,-794,269,4072,319,100686
11:53:27.49,19418,-987.3046875,27.34375,-122.0703125,0.026878070480712675,-0.03665191429188092,0.013439035240356337,-2120,-795,271,4072,319,100686
11:53:27.69,19419,-980.46875,24.4140625,-124.0234375,0.020769418098732523,-0.04031710572106901,0.009773843811168246,-2120,-795,271,4072,319,100686
11:53:27.89,19420,-984.375,28.3203125,-125.0,0.03298672286269283,-0.0476474885794452,0.009773843811168246,-2120,-795,271,4072,319,100686
11:53:27.110,19421,-991.2109375,15.625,-104.4921875,0.003665191429188092,-0.026878070480712675,0.008552113334772215,-2120,-795,271,4072,319,100686
11:53:27.130,19422,-978.515625,22.4609375,-123.046875,0.004886921905584123,-0.04153883619746505,0.004886921905584123,-2120,-795,271,4072,319,100686
11:53:27.140,19423,-978.515625,23.4375,-127.9296875,0.007330382858376184,-0.029321531433504737,0.006108652381980153,-2116,-799,260,4072,319,100686
11:53:27.160,19424,-983.3984375,19.53125,-131.8359375,0.009773843811168246,-0.03543018381548489,0.006108652381980153,-2116,-799,260,4072,319,100686
11:53:27.181,19425,-991.2109375,6.8359375,-132.8125,0.007330382858376184,-0.020769418098732523,0.014660765716752368,-2116,-799,260,4072,319,100686
11:53:27.201,19426,-993.1640625,4.8828125,-131.8359375,-0.010995574287564277,-0.0024434609527920616,0.01710422666954443,-2116,-799,260,4072,319,100686
11:53:27.211,19427,-996.09375,24.4140625,-136.71875,-0.006108652381980153,0.01832595714594046,0.003665191429188092,-2115,-794,263,4072,319,100686
11:53:27.232,19428,-1000.0,25.390625,-126.953125,-0.0476474885794452,0.006108652381980153,0.0317649923862968,-2115,-794,263,4072,319,100686
11:53:27.252,19429,-999.0234375,18.5546875,-125.0,-0.05375614096142535,0.03420845333908886,0.04520402762665313,-2115,-794,263,4072,319,100686
11:53:27.272,19430,-997.0703125,8.7890625,-134.765625,-0.07208209810736582,0.04153883619746505,0.07086036763096978,-2115,-794,263,4072,319,100686
11:53:27.292,19431,-996.09375,7.8125,-141.6015625,-0.07086036763096978,0.06597344572538566,0.07819075048934597,-2115,-794,263,4072,319,100686
11:53:27.303,19432,-995.1171875,14.6484375,-145.5078125,-0.0867428638241182,0.08918632477691024,0.12217304763960309,-2120,-793,270,4072,319,100686
11:53:27.323,19433,-1005.859375,35.15625,-153.3203125,-0.1038470904936626,0.12828170002158323,0.17837264955382048,-2120,-793,270,4072,319,100686
11:53:27.343,19434,-1000.0,21.484375,-167.96875,-0.14172073526193957,0.1734857276482364,0.22479840765686968,-2120,-793,270,4072,319,100686
11:53:27.363,19435,-984.375,26.3671875,-170.8984375,-0.1429424657383356,0.2223549467040776,0.2541199390903744,-2120,-793,270,4072,319,100686
11:53:27.384,19436,-992.1875,34.1796875,-208.0078125,-0.2516764781375823,0.2700024352835228,0.28099800957108706,-2120,-793,270,4072,319,100686
11:53:27.394,19437,-997.0703125,0.9765625,-209.9609375,-0.35185837720205687,0.2541199390903744,0.29810223624063154,-2120,-790,282,4072,319,100686
11:53:27.415,19438,-1000.9765625,15.625,-214.84375,-0.35430183815484895,0.27611108766550296,0.34941491624926485,-2120,-790,282,4072,319,100686
11:53:27.435,19439,-1014.6484375,93.75,-219.7265625,-0.32375857624494814,0.3127630019573839,0.4043927876870862,-2120,-790,282,4072,319,100686
11:53:27.456,19440,-1029.296875,141.6015625,-188.4765625,-0.1905899543177808,0.3640756819660172,0.47280969436526393,-2120,-790,282,4072,319,100686
11:53:27.466,19441,-1034.1796875,135.7421875,-229.4921875,0.0,0.4288273972150068,0.5033529562751646,-2124,-776,288,4072,319,100686
11:53:27.486,19442,-995.1171875,95.703125,-279.296875,0.04398229715025711,0.5033529562751646,0.515570261039125,-2124,-776,288,4072,319,100686
11:53:27.527,19443,-996.09375,125.0,-247.0703125,0.1356120828799594,0.45204027626653137,0.5705481324769464,-2124,-776,288,4072,319,100686
11:53:27.547,19444,-991.2109375,174.8046875,-287.109375,0.20891591146372127,0.39339721339952194,0.5827654372409066,-2124,-776,288,4072,319,100686
11:53:27.558,19445,-988.28125,225.5859375,-338.8671875,0.37140606482439337,0.41050144006906636,0.6328563867731439,-2124,-776,288,4072,319,100686
11:53:27.578,19446,-954.1015625,311.5234375,-355.46875,0.6072000467688273,0.4153883619746504,0.7696902001294993,-2124,-754,310,4072,319,100686
11:53:27.598,19447,-963.8671875,372.0703125,-363.28125,0.912632665867835,0.30543261909900765,0.8527678725244295,-2124,-754,310,4072,319,100686
11:53:27.619,19448,-932.6171875,413.0859375,-349.609375,1.1081095420912,0.33719761148530447,1.2082914411556744,-2124,-754,310,4072,319,100686
11:53:27.639,19449,-958.984375,431.640625,-338.8671875,1.2547171992587234,0.3335324200561164,1.4575244583404645,-2124,-754,310,4072,319,100686
11:53:27.649,19450,-1001.953125,523.4375,-352.5390625,1.1814133706749619,0.4618141200776996,1.7617353469630763,-2124,-754,310,4072,319,100686
11:53:27.670,19451,-967.7734375,619.140625,-393.5546875,1.1594222220998334,0.5448917924726296,2.1160371851179254,-2124,-721,327,4072,319,100686
11:53:27.690,19452,-912.109375,692.3828125,-334.9609375,1.347568715464822,0.5839871677173026,2.4471261442212495,-2124,-721,327,4066,319,100686
11:53:27.710,19453,-901.3671875,701.171875,-333.0078125,1.2730431564046643,0.6621779182066487,2.7659977985606137,-2124,-721,327,4066,319,100686
11:53:27.721,19454,-881.8359375,786.1328125,-313.4765625,1.393994473567871,0.8271115325201129,3.059213112895661,-2124,-721,327,4066,319,100686
11:53:27.741,19455,-882.8125,780.2734375,-406.25,1.2351695116363872,0.874759021099558,3.2278119186383134,-2124,-721,327,4066,319,100686
11:53:27.761,19456,-862.3046875,815.4296875,-413.0859375,1.070235897322923,1.0348057135074382,3.4782666662994997,-2120,-635,347,4066,319,100686
11:53:27.782,19457,-812.5,828.125,-423.828125,0.8967501696746865,1.2376129725891793,3.5552356863124492,-2120,-635,347,4066,319,100686
11:53:27.802,19458,-782.2265625,821.2890625,-397.4609375,0.7452555906015788,1.3048081487909609,3.6028831748918946,-2120,-635,347,4066,319,100686
11:53:27.812,19459,-773.4375,864.2578125,-351.5625,0.7073819458333017,1.2840387306922283,3.6370916282309835,-2120,-635,347,4066,319,100686
11:53:27.833,19460,-708.0078125,835.9375,-382.8125,0.6853907972581733,1.2779300783102483,3.5405749205956973,-2067,-510,402,4066,319,100686
11:53:27.854,19461,-659.1796875,807.6171875,-398.4375,0.7134905982152819,1.2131783630612585,3.4257322558144705,-2067,-510,402,4066,319,100686
11:53:27.874,19462,-618.1640625,740.234375,-435.546875,0.6695083010650249,1.1936306754389219,3.220481535779937,-2067,-510,402,4066,319,100686
11:53:27.885,19463,-611.328125,792.96875,-398.4375,0.7305948248848264,1.0800097411340912,2.995683128123068,-2067,-510,402,4066,319,100686
11:53:27.905,19464,-582.03125,788.0859375,-360.3515625,0.7452555906015788,0.8038986534685881,2.8686231585778805,-2067,-510,402,4066,319,100686
11:53:27.946,19465,-499.0234375,684.5703125,-442.3828125,0.7293730944084303,0.6914994496401534,2.6352726375862385,-1989,-405,448,4066,319,100686
11:53:27.966,19466,-450.1953125,625.0,-488.28125,0.6719517620178169,0.48747046008201633,2.460565179461606,-1989,-405,448,4066,319,100686
11:53:27.976,19467,-420.8984375,641.6015625,-454.1015625,0.7782423134642715,0.2932153143350474,2.2834142603841814,-1989,-405,448,4066,319,100686
11:53:27.996,19468,-400.390625,662.109375,-413.0859375,0.9004153611038747,0.1820378409830086,2.0903808451136086,-1989,-405,448,4066,319,100686
11:53:28.17,19469,-376.953125,674.8046875,-395.5078125,0.9737191896876365,0.10506882097005865,1.8875735860318674,-1989,-405,448,4066,319,100686
11:53:28.88,19470,-321.2890625,600.5859375,-485.3515625,0.8784242125287461,0.039095375244672985,1.7201965107656112,-1900,-345,493,4066,319,100686
11:53:28.109,19471,-273.4375,541.015625,-564.453125,0.7794640439406676,-0.07330382858376185,1.5503759745465633,-1900,-345,493,4066,319,100686
11:53:28.129,19472,-263.671875,520.5078125,-613.28125,0.63407811724954,-0.15271630954950383,1.4587461888168607,-1900,-345,493,4066,319,100686
11:53:28.139,19473,-222.65625,576.171875,-612.3046875,0.6304129258203519,-0.13683381335635544,1.3720033249927428,-1900,-345,493,4066,319,100686
11:53:28.160,19474,-229.4921875,667.96875,-590.8203125,0.7476990515543708,-0.13683381335635544,1.2754866173574562,-1838,-328,520,4066,319,100686
11:53:28.180,19475,-198.2421875,679.6875,-615.234375,0.756251164889143,-0.12950343049797927,1.2180652849668427,-1838,-328,520,4066,319,100686
11:53:28.200,19476,-147.4609375,679.6875,-625.0,0.6279694648675598,-0.27611108766550296,1.1887437535333378,-1838,-328,520,4066,319,100686
11:53:28.221,19477,-118.1640625,587.890625,-695.3125,0.35796702958403703,-0.3457497248200767,1.150870108765061,-1838,-328,520,4066,319,100686
11:53:28.231,19478,-103.515625,553.7109375,-735.3515625,0.31764992386296803,-0.24434609527920617,1.0348057135074382,-1838,-328,520,4066,319,100686
11:53:28.251,19479,-122.0703125,655.2734375,-708.0078125,0.27977627909469105,-0.2907718533822553,1.0958922373272395,-1790,-322,545,4066,319,100686
11:53:28.271,19480,-75.1953125,615.234375,-692.3828125,0.27733281814189903,-0.2907718533822553,1.0616837839881508,-1790,-322,545,4066,319,100686
11:53:28.291,19481,-64.453125,633.7890625,-704.1015625,0.5216789134211052,-0.35796702958403703,0.9737191896876365,-1790,-322,545,4066,319,100686
11:53:28.312,19482,-48.828125,631.8359375,-735.3515625,0.5448917924726296,-0.41172317054546237,0.9871582249279928,-1790,-322,545,4066,319,100686
11:53:28.322,19483,-59.5703125,604.4921875,-772.4609375,0.4166100924510465,-0.32375857624494814,0.9431759277777358,-1790,-322,545,4066,319,100686
11:53:28.342,19484,-57.6171875,616.2109375,-807.6171875,0.2150245638457014,-0.3481931857728688,0.9358455449193596,-1765,-315,548,4066,319,100686
11:53:28.363,19485,-20.5078125,499.0234375,-833.984375,-0.13683381335635544,-0.33964107243809655,0.9016370915802707,-1765,-315,548,4066,319,100686
11:53:28.383,19486,-29.296875,458.0078125,-796.875,-0.1307251609743753,-0.27611108766550296,0.8014551925157961,-1765,-315,548,4066,319,100686
11:53:28.393,19487,-0.9765625,447.265625,-750.0,-0.04398229715025711,-0.24923301718479027,0.6524040743954804,-1765,-315,548,4066,319,100686
11:53:28.414,19488,-27.34375,486.328125,-732.421875,0.1148426647812269,-0.2663372438543347,0.5290092962794813,-1738,-310,548,4066,319,100686
11:53:28.434,19489,-75.1953125,468.75,-818.359375,0.2186897552748895,-0.197920337176157,0.43615778007338296,-1738,-310,548,4066,319,100686
11:53:28.454,19490,-94.7265625,375.0,-794.921875,0.32131511529215606,-0.1502728485967118,0.2932153143350474,-1738,-310,548,4066,319,100686
11:53:28.474,19491,-113.28125,239.2578125,-762.6953125,0.3078760800517997,-0.0867428638241182,0.15882496193148402,-1738,-310,548,4066,319,100686
11:53:28.484,19492,-145.5078125,220.703125,-777.34375,0.18081611050661253,-0.0317649923862968,0.02809980095710871,-1738,-310,548,4066,319,100686
11:53:28.505,19493,-149.4140625,211.9140625,-785.15625,0.06230825429619757,-0.04031710572106901,-0.10506882097005865,-1718,-306,557,4066,319,100686
11:53:28.525,19494,-131.8359375,182.6171875,-801.7578125,-0.01832595714594046,-0.0012217304763960308,-0.3090978105281958,-1718,-306,557,4066,319,100686
11:53:28.546,19495,-138.671875,236.328125,-824.21875,0.0,0.08063421144213802,-0.4166100924510465,-1718,-306,557,4066,319,100686
11:53:28.566,19496,-143.5546875,294.921875,-780.2734375,-0.04398229715025711,0.08918632477691024,-0.5204571829447091,-1718,-306,557,4066,319,100686
11:53:28.576,19497,-142.578125,298.828125,-738.28125,-0.006108652381980153,0.13805554383275148,-0.7024950239277178,-1718,-306,557,4066,319,100686
11:53:28.658,19498,-157.2265625,315.4296875,-734.375,-0.06108652381980154,0.09285151620609834,-1.0274753306490618,-1728,-312,561,4066,319,100686
11:53:28.668,19499,-163.0859375,332.03125,-771.484375,-0.19914206765255302,0.1356120828799594,-1.2412781640183672,-1728,-312,561,4066,319,100686
11:53:28.689,19500,-174.8046875,367.1875,-807.6171875,-0.24434609527920617,0.25900686099595854,-1.4025465869026434,-1728,-312,561,4066,319,100686
11:53:28.710,19501,-188.4765625,427.734375,-744.140625,-0.4948008429403924,0.33597588100890846,-1.4819590678683856,-1728,-312,561,4066,319,100686
11:53:28.730,19502,-229.4921875,505.859375,-673.828125,-0.7367034772668065,0.4605923896013036,-1.589471349791236,-1756,-323,563,4078,319,100689
11:53:28.740,19503,-212.890625,593.75,-631.8359375,-0.8845328649107264,0.36163222101322506,-1.6310101859887012,-1756,-323,563,4078,319,100689
11:53:28.760,19504,-198.2421875,636.71875,-758.7890625,-0.8038986534685881,0.3078760800517997,-1.6908749793321065,-1756,-323,563,4078,319,100689
11:53:28.781,19505,-135.7421875,802.734375,-786.1328125,-0.7867944267990439,0.41416663149825445,-1.6798794050445423,-1756,-323,563,4078,319,100689
11:53:28.801,19506,-52.734375,895.5078125,-676.7578125,-0.9859364944515968,0.4960225734167885,-1.4636331107224447,-1756,-323,563,4078,319,100689
11:53:28.822,19507,-55.6640625,1000.0,-638.671875,-0.9737191896876365,0.4569271981721155,-1.3732250554691385,-1794,-324,547,4078,319,100689
11:53:28.832,19508,-81.0546875,1125.9765625,-680.6640625,-0.7134905982152819,0.477696616270848,-1.2864821916450204,-1794,-324,547,4078,319,100689
11:53:28.853,19509,-0.9765625,1156.25,-691.40625,-0.55710909723659,0.34941491624926485,-1.1252137687607444,-1794,-324,547,4078,319,100689
11:53:28.873,19510,21.484375,1066.40625,-621.09375,-0.5473352534254218,0.21746802479849348,-0.8820894039579342,-1794,-324,547,4078,319,100689
11:53:28.893,19511,-5.859375,1008.7890625,-622.0703125,-0.3628539514896212,0.1942551457469689,-0.7904596182282319,-1794,-324,547,4078,319,100689
11:53:28.903,19512,-18.5546875,973.6328125,-673.828125,-0.3090978105281958,0.1734857276482364,-0.6988298324985297,-1828,-324,537,4078,319,100689
11:53:28.924,19513,-36.1328125,943.359375,-684.5703125,-0.2419026343264141,0.14905111812031577,-0.5827654372409066,-1828,-324,537,4078,319,100689
11:53:28.944,19514,-50.78125,913.0859375,-661.1328125,-0.23579398194443396,0.1429424657383356,-0.3909537524467298,-1828,-324,537,4078,319,100689
11:53:28.965,19515,-69.3359375,876.953125,-666.9921875,-0.1869247628885927,0.09285151620609834,-0.2956587752878394,-1828,-324,537,4078,319,100689
11:53:28.985,19516,-75.1953125,831.0546875,-688.4765625,-0.08552113334772216,0.06963863715457375,-0.2528982086139784,-1847,-335,528,4078,319,100689
11:53:28.995,19517,-87.890625,779.296875,-686.5234375,-0.006108652381980153,0.06475171524898964,-0.17592918860102844,-1847,-335,528,4078,319,100689
11:53:29.15,19518,-119.140625,744.140625,-678.7109375,0.026878070480712675,0.07819075048934597,-0.1307251609743753,-1847,-335,528,4078,319,100689
11:53:29.36,19519,-150.390625,718.75,-671.875,0.05375614096142535,0.07452555906015788,-0.11972958668681102,-1847,-335,528,4078,319,100689
11:53:29.56,19520,-155.2734375,678.7109375,-693.359375,0.012217304763960306,0.1075122819228507,-0.13805554383275148,-1847,-335,528,4078,319,100689
11:53:29.77,19521,-164.0625,645.5078125,-703.125,-0.03298672286269283,0.16859880574265224,-0.1343903524035634,-1860,-336,527,4078,319,100689
11:53:29.87,19522,-167.96875,620.1171875,-735.3515625,-0.08063421144213802,0.2113593724165133,-0.16859880574265224,-1860,-336,527,4078,319,100689
11:53:29.108,19523,-163.0859375,614.2578125,-744.140625,-0.13194689145077132,0.2944370448114434,-0.2211332162276816,-1860,-336,527,4078,319,100689
11:53:29.128,19524,-159.1796875,605.46875,-738.28125,-0.17226399717184035,0.37018433434799736,-0.2895501229058593,-1860,-336,527,4078,319,100689
11:53:29.148,19525,-162.109375,600.5859375,-730.46875,-0.2516764781375823,0.4618141200776996,-0.34086280291449256,-1860,-336,527,4078,319,100689
11:53:29.158,19526,-160.15625,609.375,-713.8671875,-0.31764992386296803,0.553443905807402,-0.43371431912059094,-1859,-337,530,4078,319,100689
11:53:29.179,19527,-151.3671875,627.9296875,-706.0546875,-0.37629298672997746,0.6120869686744114,-0.5290092962794813,-1859,-337,530,4078,319,100689
11:53:29.199,19528,-128.90625,619.140625,-710.9375,-0.5229006438975012,0.7220427115500542,-0.6218608124855797,-1859,-337,530,4078,319,100689
11:53:29.219,19529,-125.0,643.5546875,-696.2890625,-0.6206390820091836,0.834441915378489,-0.7464773210779747,-1859,-337,530,4078,319,100689
11:53:29.239,19530,-119.140625,702.1484375,-669.921875,-0.7024950239277178,0.8723155601467659,-0.7806857744170637,-1859,-341,529,4078,319,100689
11:53:29.250,19531,-103.515625,728.515625,-650.390625,-0.7990117315630041,0.9810495725460128,-0.8454374896660533,-1859,-341,529,4078,319,100689
11:53:29.270,19532,-115.234375,801.7578125,-630.859375,-0.8136724972797564,1.029918791601854,-0.9004153611038747,-1859,-341,529,4078,319,100689
11:53:29.290,19533,-93.75,879.8828125,-610.3515625,-0.7635815477475193,0.9993755296919531,-0.9358455449193596,-1859,-341,529,4078,319,100689
11:53:29.311,19534,-74.21875,915.0390625,-578.125,-0.6475171524898963,0.9798278420696167,-0.915076126820627,-1859,-341,529,4078,319,100689
11:53:29.331,19535,-48.828125,936.5234375,-574.21875,-0.6010913943868472,0.9615018849236762,-0.8955284391982905,-1864,-341,536,4078,319,100689
11:53:29.341,19536,-45.8984375,1000.0,-535.15625,-0.5045746867515608,0.8283332629965089,-0.8161159582325487,-1864,-341,536,4078,319,100689
11:53:29.361,19537,-23.4375,1015.625,-493.1640625,-0.4214970143566306,0.7440338601251827,-0.6866125277345693,-1864,-341,536,4078,319,100689
11:53:29.382,19538,-18.5546875,991.2109375,-486.328125,-0.4410447019789671,0.6450736915371041,-0.6120869686744114,-1864,-341,536,4078,319,100689
11:53:29.402,19539,-21.484375,1010.7421875,-511.71875,-0.35552356863124496,0.4948008429403924,-0.5229006438975012,-1864,-341,536,4078,319,100689
11:53:29.412,19540,-13.671875,1025.390625,-533.203125,-0.23579398194443396,0.3298672286269283,-0.40194932673429407,-1867,-345,528,4078,319,100689
11:53:29.433,19541,-32.2265625,1059.5703125,-510.7421875,-0.052534410485029326,0.16859880574265224,-0.19181168479417682,-1867,-345,528,4078,319,100689
11:53:29.453,19542,-26.3671875,1039.0625,-525.390625,-0.058643062867009474,0.10629055144645469,-0.029321531433504737,-1867,-345,528,4078,319,100689
11:53:29.493,19543,-8.7890625,994.140625,-585.9375,-0.04153883619746505,0.06108652381980154,0.08063421144213802,-1867,-345,528,4078,319,100689
11:53:29.503,19544,-47.8515625,1013.671875,-602.5390625,0.11362093430483088,-0.07086036763096978,0.28099800957108706,-1867,-345,528,4078,319,100689
11:53:29.524,19545,-62.5,1026.3671875,-555.6640625,0.15638150097869194,-0.15638150097869194,0.4691445029360758,-1872,-354,526,4078,319,100689
11:53:29.544,19546,-81.0546875,998.046875,-550.78125,0.1466076571675237,-0.14538592669112765,0.516791991515521,-1872,-354,526,4078,319,100689
11:53:29.564,19547,-129.8828125,928.7109375,-578.125,0.1905899543177808,-0.15393804002589986,0.5546656362837981,-1872,-354,526,4078,319,100689
11:53:29.585,19548,-90.8203125,814.453125,-605.46875,0.18081611050661253,-0.2076941809873252,0.5888740896228868,-1872,-354,526,4078,319,100689
11:53:29.595,19549,-136.71875,787.109375,-597.65625,0.23212879051524585,-0.34941491624926485,0.678060414399797,-1864,-350,526,4078,319,100689
11:53:29.616,19550,-146.484375,831.0546875,-536.1328125,0.30543261909900765,-0.29688050576423547,0.755029434412747,-1864,-350,526,4078,319,100689
11:53:29.636,19551,-122.0703125,886.71875,-477.5390625,0.39217548292312593,-0.33597588100890846,0.7843509658462519,-1864,-350,526,4078,319,100689
11:53:29.657,19552,-129.8828125,760.7421875,-577.1484375,0.29932396671702755,-0.4960225734167885,0.6291911953439558,-1864,-350,526,4066,319,100685
11:53:29.667,19553,-92.7734375,660.15625,-700.1953125,0.03665191429188092,-0.39461894387591795,0.594982742004867,-1864,-350,526,4066,319,100685
11:53:29.687,19554,-83.0078125,627.9296875,-652.34375,-0.1343903524035634,-0.28344147052387914,0.5839871677173026,-1845,-340,536,4066,319,100685
11:53:29.707,19555,-104.4921875,696.2890625,-552.734375,-0.05375614096142535,-0.19914206765255302,0.7134905982152819,-1845,-340,536,4066,319,100685
11:53:29.728,19556,-98.6328125,778.3203125,-520.5078125,0.05375614096142535,-0.24556782575560218,0.8649851772883896,-1845,-340,536,4066,319,100685
11:53:29.758,19557,-130.859375,766.6015625,-597.65625,0.0989601685880785,-0.1893682238413848,0.8637634468119937,-1845,-340,536,4066,319,100685
11:53:29.779,19558,-129.8828125,672.8515625,-662.109375,-0.06597344572538566,-0.09285151620609834,0.834441915378489,-1845,-340,536,4066,319,100685
11:53:29.799,19559,-130.859375,455.078125,-684.5703125,-0.09285151620609834,-0.06230825429619757,0.6902777191637574,-1818,-330,547,4066,319,100685
11:53:29.819,19560,-140.625,352.5390625,-675.78125,-0.024434609527920613,-0.12583823906879116,0.4398229715025711,-1818,-330,547,4066,319,100685
11:53:29.839,19561,-172.8515625,281.25,-579.1015625,-0.1551597705022959,-0.1954768762233649,0.2419026343264141,-1818,-330,547,4066,319,100685
11:53:29.849,19562,-201.171875,218.75,-595.703125,-0.15882496193148402,-0.20891591146372127,-0.09773843811168245,-1818,-330,547,4066,319,100685
11:53:29.870,19563,-181.640625,255.859375,-608.3984375,-0.1343903524035634,-0.13805554383275148,-0.3652974124424132,-1815,-323,527,4066,319,100685
11:53:29.910,19564,-170.8984375,357.421875,-618.1640625,-0.10018189906447451,-0.1111774733520388,-0.5815437067645106,-1815,-323,527,4066,319,100685
11:53:29.931,19565,-155.2734375,430.6640625,-576.171875,-0.17959438003021652,-0.15271630954950383,-0.670730031541421,-1815,-323,527,4066,319,100685
11:53:29.941,19566,-153.3203125,509.765625,-530.2734375,-0.2553416695667704,-0.18814649336498873,-0.8222246106145287,-1815,-323,527,4066,319,100685
11:53:29.961,19567,-166.015625,577.1484375,-541.015625,-0.39828413530510604,-0.19914206765255302,-0.9382890058721516,-1815,-323,527,4066,319,100685
11:53:29.982,19568,-177.734375,645.5078125,-565.4296875,-0.5241223743738972,-0.2467895562319982,-1.0629055144645467,-1820,-319,528,4066,319,100685
11:53:30.2,19569,-170.8984375,735.3515625,-580.078125,-0.5338962181850655,-0.23335052099164189,-1.1557570306706453,-1820,-319,528,4066,319,100685
11:53:30.12,19570,-182.6171875,802.734375,-572.265625,-0.6585127267774605,-0.21991148575128555,-1.1349876125719125,-1820,-319,528,4066,319,100685
11:53:30.104,19571,-199.21875,835.9375,-539.0625,-0.7220427115500542,-0.2113593724165133,-1.0983356982800316,-1820,-319,528,4066,319,100685
11:53:30.124,19572,-187.5,922.8515625,-586.9140625,-0.5229006438975012,-0.14172073526193957,-1.0836749325632793,-1820,-319,528,4066,319,100685
11:53:30.144,19573,-149.4140625,986.328125,-615.234375,-0.4789183467472441,-0.08185594191853407,-0.9468411192069238,-1857,-332,509,4066,319,100685
11:53:30.165,19574,-149.4140625,1013.671875,-588.8671875,-0.3127630019573839,-0.12461650859239513,-0.7501425125071629,-1857,-332,509,4066,319,100685
11:53:30.185,19575,-132.8125,1114.2578125,-583.0078125,-0.026878070480712675,-0.16493361431346415,-0.5473352534254218,-1857,-332,509,4066,319,100685
11:53:30.195,19576,-100.5859375,1173.828125,-584.9609375,0.12461650859239513,-0.18448130193580062,-0.4056145181634822,-1857,-332,509,4066,319,100685
11:53:30.215,19577,-106.4453125,1152.34375,-571.2890625,0.14905111812031577,-0.1734857276482364,-0.28099800957108706,-1887,-344,492,4066,319,100685
11:53:30.235,19578,-125.0,1118.1640625,-558.59375,0.12461650859239513,-0.16859880574265224,-0.1551597705022959,-1887,-344,492,4066,319,100685
11:53:30.256,19579,-121.09375,1097.65625,-548.828125,0.08918632477691024,-0.15393804002589986,-0.03787364476827696,-1887,-344,492,4066,319,100685
11:53:30.276,19580,-137.6953125,1029.296875,-555.6640625,0.007330382858376184,-0.14416419621473164,-0.02809980095710871,-1887,-344,492,4066,319,100685
11:53:30.286,19581,-170.8984375,941.40625,-559.5703125,-0.1429424657383356,-0.1478293876439197,-0.009773843811168246,-1887,-344,492,4066,319,100685
11:53:30.306,19582,-178.7109375,891.6015625,-590.8203125,-0.20402898955813717,-0.08552113334772216,-0.02809980095710871,-1900,-349,492,4066,319,100685
11:53:30.327,19583,-177.734375,861.328125,-605.46875,-0.2028072590817411,-0.0476474885794452,-0.026878070480712675,-1900,-349,492,4066,319,100685
11:53:30.347,19584,-196.2890625,838.8671875,-586.9140625,-0.14538592669112765,-0.0158824961931484,-0.008552113334772215,-1900,-349,492,4066,319,100685
11:53:30.358,19585,-202.1484375,835.9375,-565.4296875,-0.12217304763960309,0.0158824961931484,0.004886921905584123,-1900,-349,492,4066,319,100685
11:53:30.378,19586,-215.8203125,826.171875,-560.546875,-0.01710422666954443,-0.020769418098732523,0.019547687622336492,-1900,-349,492,4066,319,100685
11:53:30.399,19587,-214.84375,804.6875,-555.6640625,0.03420845333908886,-0.04276056667386108,0.01832595714594046,-1902,-344,493,4066,319,100685
11:53:30.419,19588,-226.5625,796.875,-536.1328125,0.04153883619746505,-0.039095375244672985,0.023212879051524585,-1902,-344,493,4066,319,100685
11:53:30.440,19589,-221.6796875,794.921875,-518.5546875,0.029321531433504737,-0.013439035240356337,0.03787364476827696,-1902,-344,493,4066,319,100685
11:53:30.450,19590,-213.8671875,780.2734375,-540.0390625,0.008552113334772215,-0.0024434609527920616,0.012217304763960306,-1902,-344,493,4066,319,100685
11:53:30.471,19591,-210.9375,780.2734375,-526.3671875,-0.020769418098732523,-0.019547687622336492,0.024434609527920613,-1905,-346,485,4066,319,100685
11:53:30.521,19592,-202.1484375,797.8515625,-534.1796875,0.0024434609527920616,-0.026878070480712675,0.02809980095710871,-1905,-346,485,4066,319,100685
11:53:30.541,19593,-199.21875,816.40625,-526.3671875,0.03543018381548489,-0.04642575810304917,0.05742133239061345,-1905,-346,485,4066,319,100685
11:53:30.562,19594,-181.640625,825.1953125,-529.296875,0.04398229715025711,-0.07330382858376185,0.09040805525330627,-1905,-346,485,4066,319,100685
11:53:30.582,19595,-164.0625,830.078125,-538.0859375,0.04031710572106901,-0.0867428638241182,0.1466076571675237,-1905,-346,485,4066,319,100685
11:53:30.602,19596,-152.34375,856.4453125,-569.3359375,0.10140362954087055,-0.06963863715457375,0.22846359908605776,-1900,-343,490,4066,319,100685
11:53:30.612,19597,-133.7890625,925.78125,-614.2578125,0.17959438003021652,-0.10018189906447451,0.3738495257771854,-1900,-343,490,4066,319,100685
11:53:30.633,19598,-111.328125,1006.8359375,-579.1015625,0.2419026343264141,-0.1038470904936626,0.5632177496185702,-1900,-343,490,4066,319,100685
11:53:30.744,19599,-77.1484375,1061.5234375,-552.734375,0.2932153143350474,-0.10506882097005865,0.7147123286916779,-1900,-343,490,4066,319,100685
11:53:30.765,19600,-48.828125,1094.7265625,-577.1484375,0.3420845333908886,-0.14905111812031577,0.833220184902093,-1900,-343,490,4066,319,100685
11:53:30.785,19601,-20.5078125,1112.3046875,-587.890625,0.39461894387591795,-0.1551597705022959,1.0189232173142897,-1888,-343,496,4066,319,100685
11:53:30.795,19602,-17.578125,1116.2109375,-612.3046875,0.44959681531373935,-0.12461650859239513,1.232726050683595,-1888,-343,496,4066,319,100681
11:53:30.815,19603,-22.4609375,1093.75,-614.2578125,0.45081854579013536,-0.07941248096574201,1.3463469849884258,-1888,-343,496,4066,319,100681
11:53:30.836,19604,-23.4375,1067.3828125,-607.421875,0.5070181477043528,-0.03543018381548489,1.4001031259498513,-1888,-343,496,4066,319,100681
11:53:30.856,19605,-41.9921875,1053.7109375,-545.8984375,0.6401867696315202,-0.04398229715025711,1.4330898488125443,-1854,-320,501,4066,319,100681
11:53:30.866,19606,-44.921875,1010.7421875,-543.9453125,0.6951646410693415,-0.052534410485029326,1.3927727430914751,-1854,-320,501,4066,319,100681
11:53:30.886,19607,-39.0625,978.515625,-563.4765625,0.8222246106145287,-0.0635299847725936,1.3610077507051783,-1854,-320,501,4066,319,100681
11:53:30.907,19608,-33.203125,950.1953125,-576.171875,0.9370672753957556,-0.11972958668681102,1.34512525451203,-1854,-320,501,4066,319,100681
11:53:30.927,19609,-31.25,880.859375,-587.890625,0.9480628496833199,-0.19303341527057283,1.3610077507051783,-1854,-320,501,4066,319,100681
11:53:30.948,19610,-33.203125,822.265625,-608.3984375,0.8662069077647858,-0.23945917337362205,1.3341296802244655,-1810,-315,524,4066,319,100681
11:53:30.958,19611,-18.5546875,817.3828125,-587.890625,0.8161159582325487,-0.2504547476611863,1.2852604611686242,-1810,-315,524,4066,319,100681
11:53:30.978,19612,-18.5546875,779.296875,-593.75,0.7379252077432025,-0.2186897552748895,1.2363912421127832,-1810,-315,524,4066,319,100681
11:53:30.999,19613,-27.34375,759.765625,-613.28125,0.6670648401122328,-0.21746802479849348,1.219287015443239,-1810,-315,524,4066,319,100681
11:53:31.19,19614,-37.109375,755.859375,-633.7890625,0.6389650391551241,-0.16126842288427604,1.230282589730803,-1810,-315,524,4066,319,100681
11:53:31.40,19615,-4.8828125,722.65625,-624.0234375,0.4838052686528282,-0.16126842288427604,1.2828170002158323,-1773,-314,547,4066,319,100681
11:53:31.50,19616,11.71875,665.0390625,-614.2578125,0.3445279943436807,-0.20647245051092922,1.263269312593496,-1773,-314,547,4066,319,100681
11:53:31.70,19617,1.953125,684.5703125,-667.96875,0.3042108886226117,-0.23701571242082997,1.230282589730803,-1773,-314,547,4066,319,100681
11:53:31.91,19618,-5.859375,775.390625,-736.328125,0.2687807048071268,-0.22479840765686968,1.2669345040226838,-1773,-314,547,4066,319,100681
11:53:31.111,19619,32.2265625,661.1328125,-682.6171875,-0.07452555906015788,-0.31520646291017596,1.4416419621473162,-1731,-312,554,4066,319,100681
11:53:31.121,19620,57.6171875,592.7734375,-635.7421875,0.009773843811168246,-0.3200933848157601,1.3732250554691385,-1731,-312,554,4066,319,100681
11:53:31.142,19621,32.2265625,670.8984375,-659.1796875,0.2113593724165133,-0.22724186860966175,1.2596041211643076,-1731,-312,554,4066,319,100681
11:53:31.162,19622,12.6953125,661.1328125,-679.6875,0.23579398194443396,-0.27733281814189903,1.2669345040226838,-1731,-312,554,4066,319,100681
11:53:31.182,19623,63.4765625,480.46875,-735.3515625,0.3286454981505323,-0.2296853295624538,1.11421819447318,-1731,-312,554,4066,319,100681
11:53:31.203,19624,53.7109375,193.359375,-777.34375,0.1734857276482364,-0.1356120828799594,0.7660250087003113,-1690,-307,566,4066,319,100681
11:53:31.213,19625,27.34375,36.1328125,-779.296875,-0.17837264955382048,-0.03543018381548489,0.5204571829447091,-1690,-307,566,4066,319,100681
11:53:31.234,19626,17.578125,95.703125,-753.90625,-0.4715879638888679,-0.05619960191421742,0.35063664672566086,-1690,-307,566,4066,319,100681
11:53:31.254,19627,35.15625,115.234375,-744.140625,-0.3872885610175418,-0.029321531433504737,0.19914206765255302,-1690,-307,566,4066,319,100681
11:53:31.275,19628,66.40625,158.203125,-751.953125,-0.08552113334772216,-0.004886921905584123,0.0317649923862968,-1690,-307,566,4066,319,100681
11:53:31.295,19629,62.5,205.078125,-792.96875,0.3042108886226117,-0.003665191429188092,-0.13316862192716736,-1671,-301,573,4066,319,100681
11:53:31.305,19630,62.5,267.578125,-777.34375,0.5302310267558774,0.019547687622336492,-0.2296853295624538,-1671,-301,573,4066,319,100681
11:53:31.325,19631,39.0625,299.8046875,-752.9296875,0.48747046008201633,0.0158824961931484,-0.278554548618295,-1671,-301,573,4066,319,100681
11:53:31.346,19632,59.5703125,294.921875,-723.6328125,0.3090978105281958,-0.06475171524898964,-0.37140606482439337,-1671,-301,573,4066,319,100681
11:53:31.366,19633,69.3359375,328.125,-712.890625,0.0830776723949301,-0.10140362954087055,-0.4972443038931845,-1671,-301,573,4066,319,100681
11:53:31.376,19634,68.359375,359.375,-687.5,-0.2235766771804736,-0.07574728953655392,-0.6633996486830448,-1672,-308,571,4066,319,100681
11:53:31.397,19635,59.5703125,432.6171875,-671.875,-0.3335324200561164,-0.0158824961931484,-0.8833111344343304,-1672,-308,571,4066,319,100681
11:53:31.417,19636,63.4765625,521.484375,-701.171875,-0.41416663149825445,-0.07208209810736582,-1.0763445497049031,-1672,-308,571,4066,319,100681
11:53:31.437,19637,68.359375,540.0390625,-697.265625,-0.40927970959267035,-0.09040805525330627,-1.2107349021084666,-1672,-308,571,4066,319,100681
11:53:31.457,19638,41.9921875,499.0234375,-658.203125,-0.4825835381764321,-0.0830776723949301,-1.3194689145077132,-1694,-309,573,4066,319,100681
11:53:31.468,19639,-9.765625,552.734375,-671.875,-0.5595525581893821,-0.0671951762017817,-1.4819590678683856,-1694,-309,573,4066,319,100681
11:53:31.488,19640,9.765625,646.484375,-692.3828125,-0.668286570588629,-0.0635299847725936,-1.5308282869242267,-1694,-309,573,4066,319,100681
11:53:31.509,19641,22.4609375,681.640625,-682.6171875,-0.5461135229490258,-0.03543018381548489,-1.5613715488341273,-1694,-309,573,4066,319,100681
11:53:31.529,19642,-35.15625,728.515625,-685.546875,-0.5864306286700948,0.014660765716752368,-1.478293876439197,-1694,-309,573,4066,319,100681
11:53:31.549,19643,-34.1796875,835.9375,-688.4765625,-0.4214970143566306,0.1038470904936626,-1.3707815945163466,-1740,-311,555,4066,319,100681
11:53:31.559,19644,-20.5078125,936.5234375,-680.6640625,-0.3787364476827696,0.14049900478554353,-1.3072516097437528,-1740,-311,555,4066,319,100681
11:53:31.580,19645,-7.8125,975.5859375,-683.59375,-0.40927970959267035,0.07574728953655392,-1.2205087459196347,-1740,-311,555,4066,319,100681
11:53:31.600,19646,40.0390625,994.140625,-722.65625,-0.35674529910764097,0.09651670763528641,-1.0861183935160714,-1740,-311,555,4066,319,100681
11:53:31.620,19647,57.6171875,1036.1328125,-780.2734375,-0.24923301718479027,0.1466076571675237,-1.0103711039795176,-1740,-311,555,4066,319,100681
11:53:31.641,19648,88.8671875,1086.9140625,-721.6796875,-0.4447098934081552,0.1905899543177808,-0.8112290363269644,-1783,-314,543,4066,319,100681
11:53:31.651,19649,54.6875,1145.5078125,-632.8125,-0.5791002458117186,0.0952949771588904,-0.6499606134426883,-1783,-314,543,4066,319,100681
11:53:31.671,19650,37.109375,1088.8671875,-644.53125,-0.5803219762881145,0.10262536001726659,-0.5094616086571448,-1783,-314,543,4066,319,100681
11:53:31.691,19651,53.7109375,1016.6015625,-713.8671875,-0.3103195410045918,0.15393804002589986,-0.4398229715025711,-1783,-314,543,4066,319,100681
11:53:31.712,19652,35.15625,936.5234375,-687.5,-0.17592918860102844,0.10018189906447451,-0.33108895910332437,-1811,-323,530,4066,319,100682
11:53:31.732,19653,17.578125,893.5546875,-630.859375,-0.19914206765255302,0.06597344572538566,-0.20036379812894903,-1811,-323,530,4066,319,100682
11:53:31.742,19654,16.6015625,877.9296875,-634.765625,-0.1356120828799594,0.07941248096574201,-0.15393804002589986,-1811,-323,530,4066,319,100682
11:53:31.762,19655,5.859375,833.0078125,-636.71875,-0.03787364476827696,0.026878070480712675,-0.10018189906447451,-1811,-323,530,4066,319,100682
11:53:31.783,19656,-10.7421875,794.921875,-624.0234375,-0.010995574287564277,0.021991148575128554,-0.03665191429188092,-1811,-323,530,4066,319,100682
11:53:31.803,19657,-18.5546875,784.1796875,-624.0234375,0.007330382858376184,0.003665191429188092,-0.010995574287564277,-1823,-323,527,4066,319,100682
11:53:31.813,19658,-13.671875,772.4609375,-626.953125,0.051312680008633295,-0.003665191429188092,-0.01832595714594046,-1823,-323,527,4066,319,100682
11:53:31.834,19659,-13.671875,759.765625,-621.09375,0.05375614096142535,-0.014660765716752368,-0.004886921905584123,-1823,-323,527,4066,319,100682
11:53:31.854,19660,-25.390625,764.6484375,-597.65625,0.05009094953223726,-0.03420845333908886,0.009773843811168246,-1823,-323,527,4066,319,100682
11:53:31.875,19661,-16.6015625,758.7890625,-628.90625,0.021991148575128554,-0.024434609527920613,0.006108652381980153,-1823,-323,527,4066,319,100682
11:53:31.895,19662,-15.625,748.046875,-630.859375,-0.01710422666954443,-0.06230825429619757,0.006108652381980153,-1820,-322,531,4066,319,100682
11:53:31.905,19663,-27.34375,747.0703125,-632.8125,-0.05009094953223726,-0.07819075048934597,0.0158824961931484,-1820,-322,531,4066,319,100682
11:53:31.925,19664,-28.3203125,753.90625,-654.296875,-0.051312680008633295,-0.05009094953223726,-0.023212879051524585,-1820,-322,531,4066,319,100682
11:53:31.946,19665,-28.3203125,757.8125,-643.5546875,-0.006108652381980153,-0.04520402762665313,-0.024434609527920613,-1820,-322,531,4066,319,100682
11:53:31.966,19666,-22.4609375,739.2578125,-640.625,-0.01832595714594046,-0.026878070480712675,-0.014660765716752368,-1813,-326,539,4066,319,100682
11:53:31.987,19667,-36.1328125,734.375,-644.53125,0.003665191429188092,-0.06230825429619757,-0.03420845333908886,-1813,-326,539,4066,319,100682
11:53:31.997,19668,-26.3671875,734.375,-630.859375,-0.014660765716752368,-0.04153883619746505,-0.06108652381980154,-1813,-326,539,4066,319,100682
11:53:32.17,19669,-25.390625,719.7265625,-626.953125,-0.01832595714594046,-0.07696902001294993,-0.09773843811168245,-1813,-326,539,4066,319,100682
11:53:32.37,19670,-28.3203125,721.6796875,-626.953125,0.013439035240356337,-0.10140362954087055,-0.1466076571675237,-1813,-326,539,4066,319,100682
11:53:32.57,19671,-16.6015625,730.46875,-625.9765625,0.06475171524898964,-0.11362093430483088,-0.17470745812463243,-1817,-327,532,4066,319,100682
11:53:32.78,19672,-8.7890625,739.2578125,-633.7890625,0.12583823906879116,-0.14049900478554353,-0.22479840765686968,-1817,-327,532,4066,319,100682
11:53:32.88,19673,-11.71875,746.09375,-635.7421875,0.15638150097869194,-0.16126842288427604,-0.2528982086139784,-1817,-327,532,4066,319,100682
11:53:32.108,19674,-6.8359375,773.4375,-645.5078125,0.1942551457469689,-0.2028072590817411,-0.2822197400474831,-1817,-327,532,4066,319,100682
11:53:32.129,19675,16.6015625,804.6875,-641.6015625,0.2736676267127109,-0.26022859147235455,-0.33964107243809655,-1817,-327,532,4066,319,100682
11:53:32.149,19676,32.2265625,847.65625,-632.8125,0.36896260387160124,-0.3384193419617005,-0.3628539514896212,-1829,-331,531,4066,319,100682
11:53:32.170,19677,12.6953125,899.4140625,-615.234375,0.3872885610175418,-0.42394047530942264,-0.3262020371977402,-1829,-331,531,4066,319,100682
11:53:32.180,19678,-10.7421875,964.84375,-629.8828125,0.45204027626653137,-0.45204027626653137,-0.3139847324337799,-1829,-331,531,4066,319,100682
11:53:32.201,19679,-27.34375,985.3515625,-633.7890625,0.5229006438975012,-0.48869219055841234,-0.2162462943220974,-1829,-331,531,4066,319,100682
11:53:32.292,19680,-30.2734375,958.984375,-648.4375,0.4557054676957195,-0.5473352534254218,-0.08185594191853407,-1839,-340,533,4066,319,100682
11:53:32.312,19681,-46.875,939.453125,-676.7578125,0.4532620067429274,-0.5375614096142536,0.013439035240356337,-1839,-340,533,4066,319,100682
11:53:32.333,19682,-69.3359375,893.5546875,-699.21875,0.41416663149825445,-0.5131268000863329,0.1466076571675237,-1839,-340,533,4066,319,100682
11:53:32.343,19683,-85.9375,903.3203125,-679.6875,0.515570261039125,-0.4801400772236401,0.2712241657599188,-1839,-340,533,4066,319,100682
11:53:32.363,19684,-121.09375,921.875,-670.8984375,0.6646213791594408,-0.514348530562729,0.40927970959267035,-1839,-340,533,4066,319,100682
11:53:32.384,19685,-140.625,896.484375,-651.3671875,0.6267477343911638,-0.5693264020005504,0.5668829410477583,-1847,-351,543,4066,319,100682
11:53:32.405,19686,-165.0390625,850.5859375,-643.5546875,0.5094616086571448,-0.5962044724812631,0.6243042734383717,-1847,-351,543,4066,319,100682
11:53:32.425,19687,-211.9140625,857.421875,-527.34375,0.2651155133779387,-0.8271115325201129,0.7208209810736581,-1847,-351,543,4066,319,100682
11:53:32.435,19688,-279.296875,832.03125,-552.734375,0.2223549467040776,-1.1093312725675961,0.839328837284073,-1847,-351,543,4066,319,100682
11:53:32.455,19689,-250.9765625,806.640625,-723.6328125,0.1356120828799594,-0.7831292353698558,0.9749409201640327,-1847,-351,543,4066,319,100682
11:53:32.476,19690,-120.1171875,634.765625,-748.046875,-0.3677408733952052,-0.5033529562751646,1.0238101392198737,-1850,-355,545,4066,319,100682
11:53:32.496,19691,-113.28125,572.265625,-633.7890625,-0.5314527572322734,-0.5448917924726296,1.112996463996784,-1850,-355,545,4066,319,100682
11:53:32.507,19692,-173.828125,729.4921875,-622.0703125,-0.2858849314766712,-0.5619960191421741,1.2657127735462879,-1850,-355,545,4066,319,100682
11:53:32.527,19693,-176.7578125,757.8125,-800.78125,-0.07941248096574201,-0.3677408733952052,1.3732250554691385,-1850,-355,545,4066,319,100682
11:53:32.548,19694,-82.03125,726.5625,-838.8671875,0.01710422666954443,-0.31887165433936404,1.2669345040226838,-1829,-334,532,4066,319,100682
11:53:32.568,19695,24.4140625,660.15625,-785.15625,-0.11239920382843484,-0.37507125625358145,1.0763445497049031,-1829,-334,532,4066,319,100682
11:53:32.589,19696,-59.5703125,575.1953125,-759.765625,-0.05375614096142535,-0.36896260387160124,0.8723155601467659,-1829,-334,532,4066,319,100682
11:53:32.599,19697,-173.828125,559.5703125,-789.0625,-0.0671951762017817,-0.22724186860966175,0.7892378877518359,-1829,-334,532,4066,319,100682
11:53:32.619,19698,-235.3515625,517.578125,-741.2109375,-0.07696902001294993,-0.17959438003021652,0.7354817467904105,-1829,-334,532,4066,319,100682
11:53:32.639,19699,-241.2109375,397.4609375,-694.3359375,0.10995574287564278,-0.2504547476611863,0.5131268000863329,-1802,-314,525,4066,319,100682
11:53:32.660,19700,-259.765625,222.65625,-694.3359375,0.14172073526193957,-0.26267205242514663,0.31764992386296803,-1802,-314,525,4066,319,100682
11:53:32.670,19701,-274.4140625,70.3125,-762.6953125,-0.0158824961931484,-0.2028072590817411,0.07452555906015788,-1802,-314,525,4066,319,100682
11:53:32.690,19702,-259.765625,92.7734375,-795.8984375,-0.1466076571675237,-0.1466076571675237,-0.1466076571675237,-1802,-314,525,4066,319,100686
11:53:32.710,19703,-263.671875,143.5546875,-757.8125,-0.11362093430483088,-0.07208209810736582,-0.2577851305195625,-1802,-314,525,4066,319,100686
11:53:32.731,19704,-273.4375,212.890625,-716.796875,0.02809980095710871,-0.04031710572106901,-0.3469714552964728,-1790,-309,520,4066,319,100686
11:53:32.751,19705,-280.2734375,305.6640625,-672.8515625,0.0952949771588904,-0.021991148575128554,-0.4557054676957195,-1790,-309,520,4066,319,100686
11:53:32.761,19706,-263.671875,274.4140625,-679.6875,0.1820378409830086,0.007330382858376184,-0.6157521601035995,-1790,-309,520,4066,319,100686
11:53:32.782,19707,-291.9921875,351.5625,-637.6953125,-0.15882496193148402,0.029321531433504737,-0.7415903991723907,-1790,-309,520,4066,319,100686
11:53:32.802,19708,-273.4375,424.8046875,-554.6875,-0.6206390820091836,0.0635299847725936,-0.8869763258635184,-1790,-309,520,4066,319,100686
11:53:32.822,19709,-250.9765625,459.9609375,-484.375,-0.9798278420696167,-0.05009094953223726,-1.225395667825219,-1792,-312,526,4066,319,100686
11:53:32.843,19710,-283.203125,582.03125,-487.3046875,-1.152091839241457,-0.17470745812463243,-1.6004669240788003,-1792,-312,526,4066,319,100686
11:53:32.853,19711,-319.3359375,711.9140625,-441.40625,-1.4966198335851377,-0.2858849314766712,-1.8558085936455708,-1792,-312,526,4066,319,100686
11:53:32.874,19712,-291.015625,737.3046875,-551.7578125,-1.4147638916666034,-0.2871066619530672,-1.8558085936455708,-1792,-312,526,4066,319,100686
11:53:32.894,19713,-112.3046875,974.609375,-680.6640625,-1.1630874135290212,-0.20525072003453318,-1.8387043669760263,-1840,-319,507,4066,319,100686
11:53:32.914,19714,-244.140625,1064.453125,-625.0,-1.1203268468551604,0.04398229715025711,-1.621236342177533,-1840,-319,507,4066,319,100686
11:53:32.986,19715,-221.6796875,1146.484375,-571.2890625,-0.9297368925373793,0.1502728485967118,-1.2424998944947634,-1840,-319,507,4066,319,100686
11:53:33.6,19716,-255.859375,1248.046875,-606.4453125,-0.7024950239277178,0.15149457907310784,-1.0873401239924674,-1840,-319,507,4066,319,100686
11:53:33.16,19717,-229.4921875,1306.640625,-693.359375,-0.5045746867515608,0.1075122819228507,-0.956614963018092,-1840,-319,507,4066,319,100686
11:53:33.37,19718,-201.171875,1190.4296875,-659.1796875,-0.3872885610175418,0.03543018381548489,-0.7635815477475193,-1894,-334,461,4066,319,100686
11:53:33.58,19719,-222.65625,1161.1328125,-638.671875,-0.35796702958403703,0.11239920382843484,-0.553443905807402,-1894,-334,461,4066,319,100686
11:53:33.78,19720,-227.5390625,1124.0234375,-608.3984375,-0.28099800957108706,0.11850785621041499,-0.40072759625789806,-1894,-334,461,4066,319,100686
11:53:33.98,19721,-238.28125,1026.3671875,-611.328125,-0.1392772743091475,0.12461650859239513,-0.3017674276698196,-1894,-334,461,4066,319,100686
11:53:33.129,19722,-246.09375,940.4296875,-557.6171875,-0.06230825429619757,0.12950343049797927,-0.197920337176157,-1894,-334,461,4066,319,100686
11:53:33.149,19723,-242.1875,862.3046875,-549.8046875,-0.0158824961931484,0.15760323145508798,-0.1233947781159991,-1915,-350,460,4066,319,100686
11:53:33.169,19724,-252.9296875,849.609375,-559.5703125,0.05375614096142535,0.16126842288427604,-0.09285151620609834,-1915,-350,460,4066,319,100686
11:53:33.179,19725,-276.3671875,823.2421875,-546.875,0.10018189906447451,0.16126842288427604,-0.026878070480712675,-1915,-350,460,4066,319,100686
11:53:33.200,19726,-283.203125,797.8515625,-552.734375,0.1233947781159991,0.1820378409830086,0.013439035240356337,-1915,-350,460,4066,319,100686
11:53:33.220,19727,-299.8046875,768.5546875,-558.59375,0.16126842288427604,0.1710422666954443,0.03420845333908886,-1924,-353,459,4066,319,100686
11:53:33.240,19728,-316.40625,738.28125,-549.8046875,0.1734857276482364,0.16126842288427604,0.0317649923862968,-1924,-353,459,4066,319,100686
11:53:33.261,19729,-317.3828125,708.0078125,-567.3828125,0.197920337176157,0.14416419621473164,-0.008552113334772215,-1924,-353,459,4066,319,100686
11:53:33.271,19730,-310.546875,691.40625,-600.5859375,0.17959438003021652,0.19181168479417682,-0.08918632477691024,-1924,-353,459,4066,319,100686
11:53:33.291,19731,-317.3828125,664.0625,-603.515625,0.06108652381980154,0.2211332162276816,-0.1307251609743753,-1924,-353,459,4066,319,100686
11:53:33.312,19732,-319.3359375,647.4609375,-578.125,-0.05986479334340551,0.26267205242514663,-0.17959438003021652,-1923,-355,457,4066,319,100686
11:53:33.332,19733,-335.9375,662.109375,-605.46875,-0.09773843811168245,0.29810223624063154,-0.2700024352835228,-1923,-355,457,4066,319,100686
11:53:33.352,19734,-336.9140625,646.484375,-635.7421875,-0.18081611050661253,0.3640756819660172,-0.3787364476827696,-1923,-355,457,4066,319,100686
11:53:33.363,19735,-344.7265625,632.8125,-646.484375,-0.2858849314766712,0.4715879638888679,-0.4679227724596798,-1923,-355,457,4066,319,100686
11:53:33.383,19736,-354.4921875,641.6015625,-606.4453125,-0.4214970143566306,0.5253441048502933,-0.5265658353266892,-1923,-355,457,4066,319,100686
11:53:33.403,19737,-360.3515625,663.0859375,-607.421875,-0.5241223743738972,0.6072000467688273,-0.5962044724812631,-1917,-358,472,4066,319,100686
11:53:33.424,19738,-350.5859375,669.921875,-621.09375,-0.6059783162924314,0.7147123286916779,-0.7098254067860938,-1917,-358,472,4066,319,100686
11:53:33.434,19739,-359.375,666.015625,-602.5390625,-0.676838683923401,0.7855726963226478,-0.791681348704628,-1917,-358,472,4066,319,100686
11:53:33.455,19740,-361.328125,674.8046875,-592.7734375,-0.7684684696531033,0.8772024820523501,-0.8564330639536176,-1917,-358,472,4066,319,100686
11:53:33.475,19741,-369.140625,678.7109375,-576.171875,-0.7819075048934596,0.9480628496833199,-0.9321803534901714,-1934,-365,483,4066,319,100686
11:53:33.495,19742,-379.8828125,689.453125,-552.734375,-0.7415903991723907,0.994488607786369,-1.0641272449409427,-1934,-365,483,4066,319,100686
11:53:33.516,19743,-384.765625,679.6875,-529.296875,-0.7757988525114795,1.0115928344559135,-1.1924089449625261,-1934,-365,483,4066,319,100686
11:53:33.526,19744,-377.9296875,695.3125,-489.2578125,-0.7855726963226478,0.9883799554043888,-1.3048081487909609,-1934,-365,483,4066,319,100686
11:53:33.546,19745,-383.7890625,705.078125,-440.4296875,-0.756251164889143,0.9651670763528643,-1.4037683173790394,-1934,-365,483,4066,319,100686
11:53:33.567,19746,-402.34375,736.328125,-389.6484375,-0.6206390820091836,0.8991936306274787,-1.5247196345422465,-1943,-383,501,4066,319,100686
11:53:33.587,19747,-406.25,729.4921875,-368.1640625,-0.5705481324769464,0.910189204915043,-1.6456709517054533,-1943,-383,501,4066,319,100686
11:53:33.608,19748,-399.4140625,746.09375,-413.0859375,-0.5937610115284709,0.8087855753741724,-1.7348572764823638,-1943,-383,501,4066,319,100686
11:53:33.618,19749,-389.6484375,749.0234375,-445.3125,-0.7159340591680741,0.6902777191637574,-1.7751743822034327,-1943,-383,501,4066,319,100686
11:53:33.679,19750,-405.2734375,734.375,-404.296875,-0.7953465401338161,0.44837508483734323,-1.7983872612549574,-1943,-383,501,4066,319,100686
11:53:33.689,19751,-430.6640625,721.6796875,-403.3203125,-0.6206390820091836,0.43493604959698695,-1.8839083946026796,-1966,-408,493,4066,319,100686
11:53:33.750,19752,-453.125,747.0703125,-423.828125,-0.4422664324553632,0.3384193419617005,-1.9156733869889764,-1966,-408,493,4066,319,100686
11:53:33.771,19753,-455.078125,739.2578125,-409.1796875,-0.42638393626221477,-0.0024434609527920616,-1.9156733869889764,-1966,-408,493,4066,319,100686
11:53:33.781,19754,-520.5078125,710.9375,-374.0234375,-0.33108895910332437,-0.20402898955813717,-1.9657643365212136,-1966,-408,493,4066,319,100686
11:53:33.801,19755,-601.5625,733.3984375,-367.1875,-0.23701571242082997,-0.2577851305195625,-2.0744983489204603,-2006,-457,498,4066,319,100686
11:53:33.821,19756,-628.90625,770.5078125,-407.2265625,-0.12461650859239513,-0.31887165433936404,-2.1184806460707173,-2006,-457,498,4066,319,100686
11:53:33.842,19757,-606.4453125,741.2109375,-458.984375,-0.04398229715025711,-0.43371431912059094,-2.0830504622552324,-2006,-457,498,4066,319,100686
11:53:33.862,19758,-563.4765625,612.3046875,-408.203125,0.08429940287132612,-0.519235452468313,-1.988977215572738,-2006,-457,498,4066,319,100686
11:53:33.872,19759,-586.9140625,567.3828125,-371.09375,0.16982053621904827,-0.5131268000863329,-1.8753562812679074,-2006,-457,498,4066,319,100686
11:53:33.893,19760,-634.765625,599.609375,-375.9765625,0.21991148575128555,-0.5119050696099369,-1.7421876593407397,-2044,-523,478,4066,319,100686
11:53:33.913,19761,-666.015625,645.5078125,-440.4296875,0.23579398194443396,-0.48869219055841234,-1.5809192364564637,-2044,-523,478,4066,319,100686
11:53:33.933,19762,-668.9453125,671.875,-457.03125,0.2186897552748895,-0.44959681531373935,-1.3976596649970594,-2044,-523,478,4066,319,100686
11:53:33.943,19763,-693.359375,623.046875,-443.359375,0.1942551457469689,-0.5338962181850655,-1.2107349021084666,-2044,-523,478,4066,319,100686
11:53:33.964,19764,-728.515625,523.4375,-399.4140625,0.2028072590817411,-0.6438519610607082,-1.1826351011513576,-2044,-523,478,4066,319,100686
11:53:33.985,19765,-781.25,501.953125,-420.8984375,0.3298672286269283,-0.6475171524898963,-1.2009610582972983,-2078,-587,462,4066,319,100686
11:53:34.5,19766,-825.1953125,505.859375,-443.359375,0.34086280291449256,-0.675616953447005,-1.1679743354346053,-2078,-587,462,4066,319,100686
11:53:34.26,19767,-828.125,443.359375,-445.3125,0.39217548292312593,-0.7281513639320344,-1.1887437535333378,-2078,-587,462,4066,319,100686
11:53:34.36,19768,-833.984375,353.515625,-405.2734375,0.3787364476827696,-0.7428121296487867,-1.2266173983016149,-2078,-587,462,4066,319,100686
11:53:34.56,19769,-877.9296875,274.4140625,-411.1328125,0.20402898955813717,-0.7770205829878756,-1.2559389297351196,-2095,-636,445,4066,319,100686
11:53:34.77,19770,-916.9921875,250.9765625,-419.921875,0.08063421144213802,-0.7843509658462519,-1.2657127735462879,-2095,-636,445,4066,319,100686
11:53:34.97,19771,-917.96875,210.9375,-425.78125,-0.10873401239924674,-0.79412480965742,-1.2889256525978126,-2095,-636,445,4066,319,100686
11:53:34.107,19772,-919.921875,183.59375,-391.6015625,-0.1233947781159991,-0.7672467391767073,-1.3048081487909609,-2095,-636,445,4066,319,100686
11:53:34.127,19773,-932.6171875,160.15625,-358.3984375,-0.06841690667817772,-0.7501425125071629,-1.2486085468767434,-2095,-636,445,4066,319,100686
11:53:34.148,19774,-952.1484375,155.2734375,-375.9765625,0.052534410485029326,-0.7648032782239153,-1.1875220230569419,-2112,-686,414,4066,319,100686
11:53:34.168,19775,-971.6796875,159.1796875,-365.234375,0.05497787143782139,-0.8014551925157961,-1.1337658820955165,-2112,-686,414,4066,319,100686
11:53:34.188,19776,-983.3984375,190.4296875,-328.125,0.14049900478554353,-0.8576547944300136,-1.106887811614804,-2112,-686,414,4066,319,100686
11:53:34.198,19777,-981.4453125,205.078125,-286.1328125,0.35552356863124496,-0.8796459430051422,-1.0494664792241903,-2112,-686,414,4066,319,100686
11:53:34.219,19778,-996.09375,199.21875,-278.3203125,0.4398229715025711,-0.8967501696746865,-1.0189232173142897,-2112,-686,414,4066,319,100686
11:53:34.239,19779,-997.0703125,181.640625,-298.828125,0.4459316238845512,-0.8808676734815382,-0.9651670763528643,-2119,-731,378,4066,319,100686
11:53:34.310,19780,-989.2578125,177.734375,-294.921875,0.43615778007338296,-0.9016370915802707,-0.8833111344343304,-2119,-731,378,4066,319,100686
11:53:34.331,19781,-979.4921875,173.828125,-259.765625,0.4312708581677988,-0.956614963018092,-0.7977900010866079,-2119,-731,378,4066,319,100686
11:53:34.351,19782,-983.3984375,167.96875,-201.171875,0.39706240482871,-0.950506310636112,-0.7281513639320344,-2119,-731,378,4066,319,100686
11:53:34.372,19783,-995.1171875,166.015625,-214.84375,0.3298672286269283,-0.9346238144429636,-0.6560692658246685,-2121,-774,361,4066,319,100686
11:53:34.382,19784,-981.4453125,177.734375,-256.8359375,0.39461894387591795,-0.9004153611038747,-0.5729915934297385,-2121,-774,361,4066,319,100686
11:53:34.402,19785,-974.609375,157.2265625,-252.9296875,0.5204571829447091,-0.8979719001510825,-0.476474885794452,-2121,-774,361,4066,319,100686
11:53:34.423,19786,-1000.0,89.84375,-201.171875,0.6572909963010646,-0.8686503687175778,-0.40317105721069013,-2121,-774,361,4066,319,100686
11:53:34.443,19787,-988.28125,13.671875,-203.125,0.6279694648675598,-0.7794640439406676,-0.36163222101322506,-2121,-774,361,4066,319,100686
11:53:34.453,19788,-966.796875,30.2734375,-249.0234375,0.48747046008201633,-0.6731734924942129,-0.29688050576423547,-2123,-795,324,4066,319,100686
11:53:34.473,19789,-988.28125,41.9921875,-228.515625,0.3469714552964728,-0.6414085001079162,-0.23335052099164189,-2123,-795,324,4066,319,100686
11:53:34.494,19790,-1017.578125,9.765625,-170.8984375,0.26267205242514663,-0.560774288665778,-0.18081611050661253,-2123,-795,324,4066,319,100686
11:53:34.514,19791,-1029.296875,14.6484375,-174.8046875,0.2113593724165133,-0.5009094953223726,-0.13194689145077132,-2123,-795,324,4066,319,100686
11:53:34.535,19792,-1044.921875,50.78125,-200.1953125,0.20525072003453318,-0.4288273972150068,-0.051312680008633295,-2123,-795,324,4066,319,100686
11:53:34.545,19793,-1045.8984375,35.15625,-207.03125,0.2186897552748895,-0.32375857624494814,0.009773843811168246,-2111,-813,279,4066,319,100686
11:53:34.565,19794,-1057.6171875,53.7109375,-291.015625,0.24556782575560218,-0.16004669240788005,0.07330382858376185,-2111,-813,279,4066,319,100686
11:53:34.586,19795,-1034.1796875,16.6015625,-310.546875,0.1148426647812269,-0.009773843811168246,0.11606439525762292,-2111,-813,279,4066,319,100686
11:53:34.606,19796,-1010.7421875,4.8828125,-233.3984375,-0.14416419621473164,0.1111774733520388,0.09040805525330627,-2111,-813,279,4066,319,100686
11:53:34.626,19797,-1013.671875,10.7421875,-101.5625,-0.1466076571675237,0.12828170002158323,0.08552113334772216,-2111,-813,279,4066,319,100686
11:53:34.636,19798,-1003.90625,32.2265625,-37.109375,0.08429940287132612,0.1233947781159991,0.09162978572970232,-2111,-816,271,4066,319,100686
11:53:34.657,19799,-979.4921875,43.9453125,-33.203125,0.33597588100890846,0.08918632477691024,0.09162978572970232,-2111,-816,271,4066,319,100686
11:53:34.678,19800,-964.84375,31.25,-51.7578125,0.5021312257987687,0.03298672286269283,0.10873401239924674,-2111,-816,271,4066,319,100686
11:53:34.698,19801,-954.1015625,4.8828125,-43.9453125,0.514348530562729,-0.012217304763960306,0.1038470904936626,-2111,-816,271,4066,319,100686
11:53:34.708,19802,-946.2890625,-35.15625,-34.1796875,0.27733281814189903,-0.04031710572106901,0.07086036763096978,-2113,-812,271,4066,319,100691
11:53:34.729,19803,-936.5234375,-15.625,-61.5234375,0.03298672286269283,-0.05619960191421742,0.039095375244672985,-2113,-812,271,4066,319,100691
11:53:34.749,19804,-943.359375,44.921875,-73.2421875,-0.0830776723949301,-0.09773843811168245,0.004886921905584123,-2113,-812,271,4066,319,100691
11:53:34.770,19805,-953.125,47.8515625,-73.2421875,-0.04520402762665313,-0.12950343049797927,-0.013439035240356337,-2113,-812,271,4066,319,100691
11:53:34.791,19806,-978.515625,28.3203125,-84.9609375,0.07208209810736582,-0.13683381335635544,-0.0158824961931484,-2113,-812,271,4066,319,100691
11:53:34.801,19807,-996.09375,20.5078125,-106.4453125,0.1551597705022959,-0.1307251609743753,0.0,-2120,-809,263,4066,319,100691
11:53:34.821,19808,-1023.4375,13.671875,-137.6953125,0.19914206765255302,-0.1111774733520388,0.003665191429188092,-2120,-809,263,4066,319,100691
11:53:34.842,19809,-1040.0390625,-7.8125,-150.390625,0.1478293876439197,-0.10018189906447451,0.003665191429188092,-2120,-809,263,4066,319,100691
11:53:34.862,19810,-1041.015625,-29.296875,-169.921875,0.04153883619746505,-0.06475171524898964,0.003665191429188092,-2120,-809,263,4066,319,100691
11:53:34.882,19811,-1010.7421875,-16.6015625,-160.15625,-0.07208209810736582,-0.006108652381980153,-0.003665191429188092,-2120,-809,263,4066,319,100691
11:53:34.892,19812,-987.3046875,5.859375,-141.6015625,-0.09285151620609834,0.003665191429188092,-0.007330382858376184,-2109,-805,263,4066,319,100691
11:53:34.913,19813,-976.5625,38.0859375,-107.421875,-0.04520402762665313,0.024434609527920613,-0.024434609527920613,-2109,-805,263,4066,319,100691
11:53:34.933,19814,-977.5390625,20.5078125,-78.125,0.007330382858376184,0.0024434609527920616,-0.010995574287564277,-2109,-805,263,4066,319,100691
11:53:34.953,19815,-977.5390625,0.9765625,-84.9609375,0.025656340004316647,-0.0012217304763960308,-0.010995574287564277,-2109,-805,263,4066,319,100691
11:53:34.963,19816,-980.46875,5.859375,-93.75,-0.003665191429188092,-0.012217304763960306,-0.008552113334772215,-2119,-805,272,4066,319,100691
11:53:34.984,19817,-970.703125,10.7421875,-92.7734375,-0.05619960191421742,-0.04276056667386108,-0.003665191429188092,-2119,-805,272,4066,319,100691
11:53:35.4,19818,-974.609375,12.6953125,-92.7734375,-0.019547687622336492,-0.06230825429619757,0.004886921905584123,-2119,-805,272,4066,319,100691
11:53:35.24,19819,-980.46875,-1.953125,-99.609375,0.008552113334772215,-0.06230825429619757,0.0024434609527920616,-2119,-805,272,4066,319,100691
11:53:35.45,19820,-986.328125,5.859375,-94.7265625,0.025656340004316647,-0.06963863715457375,0.0,-2119,-805,272,4066,319,100691
11:53:35.55,19821,-985.3515625,17.578125,-91.796875,-0.004886921905584123,-0.08185594191853407,0.0024434609527920616,-2114,-803,267,4066,319,100691
11:53:35.75,19822,-994.140625,6.8359375,-96.6796875,-0.0012217304763960308,-0.08063421144213802,-0.006108652381980153,-2114,-803,267,4066,319,100691
11:53:35.95,19823,-993.1640625,8.7890625,-119.140625,-0.003665191429188092,-0.07941248096574201,0.007330382858376184,-2114,-803,267,4066,319,100691
11:53:35.116,19824,-991.2109375,12.6953125,-124.0234375,0.007330382858376184,-0.07330382858376185,0.010995574287564277,-2114,-803,267,4066,319,100691
11:53:35.136,19825,-996.09375,2.9296875,-119.140625,-0.009773843811168246,-0.05986479334340551,0.01832595714594046,-2114,-803,267,4066,319,100691
11:53:35.146,19826,-1003.90625,-0.0,-121.09375,-0.003665191429188092,-0.051312680008633295,0.0,-2119,-803,266,4066,319,100691
11:53:35.167,19827,-998.046875,-3.90625,-125.0,-0.02809980095710871,-0.03298672286269283,-0.0012217304763960308,-2119,-803,266,4066,319,100691
11:53:35.187,19828,-992.1875,21.484375,-120.1171875,-0.05009094953223726,-0.024434609527920613,0.0024434609527920616,-2119,-803,266,4066,319,100691
11:53:35.208,19829,-983.3984375,20.5078125,-92.7734375,-0.052534410485029326,-0.029321531433504737,0.012217304763960306,-2119,-803,266,4066,319,100691
11:53:35.218,19830,-988.28125,7.8125,-100.5859375,0.006108652381980153,-0.029321531433504737,0.012217304763960306,-2122,-807,261,4066,319,100691
11:53:35.238,19831,-988.28125,-5.859375,-100.5859375,0.026878070480712675,-0.019547687622336492,0.006108652381980153,-2122,-807,261,4066,319,100691
11:53:35.258,19832,-981.4453125,14.6484375,-88.8671875,-0.019547687622336492,-0.04031710572106901,-0.006108652381980153,-2122,-807,261,4066,319,100691
11:53:35.278,19833,-980.46875,14.6484375,-97.65625,-0.052534410485029326,-0.04520402762665313,0.0,-2122,-807,261,4066,319,100691
11:53:35.299,19834,-980.46875,9.765625,-102.5390625,-0.023212879051524585,-0.04398229715025711,-0.0024434609527920616,-2122,-807,261,4066,319,100691
11:53:35.309,19835,-983.3984375,3.90625,-97.65625,-0.010995574287564277,-0.05009094953223726,0.006108652381980153,-2121,-801,275,4066,319,100691
11:53:35.329,19836,-990.234375,9.765625,-95.703125,-0.025656340004316647,-0.04398229715025711,-0.014660765716752368,-2121,-801,275,4066,319,100691
11:53:35.370,19837,-996.09375,18.5546875,-108.3984375,-0.023212879051524585,-0.03787364476827696,-0.0024434609527920616,-2121,-801,275,4066,319,100691
11:53:35.390,19838,-995.1171875,19.53125,-112.3046875,-0.008552113334772215,-0.04276056667386108,0.012217304763960306,-2121,-801,275,4066,319,100691
11:53:35.400,19839,-996.09375,3.90625,-116.2109375,0.0024434609527920616,-0.051312680008633295,0.010995574287564277,-2121,-801,275,4066,319,100691
11:53:35.420,19840,-991.2109375,-3.90625,-120.1171875,-0.007330382858376184,-0.026878070480712675,0.013439035240356337,-2123,-799,268,4066,319,100691
11:53:35.512,19841,-981.4453125,9.765625,-119.140625,-0.012217304763960306,-0.024434609527920613,0.023212879051524585,-2123,-799,268,4066,319,100691
11:53:35.533,19842,-980.46875,15.625,-103.515625,-0.024434609527920613,-0.012217304763960306,0.03298672286269283,-2123,-799,268,4066,319,100691
11:53:35.553,19843,-991.2109375,17.578125,-99.609375,-0.008552113334772215,-0.01832595714594046,0.03665191429188092,-2123,-799,268,4066,319,100691
11:53:35.564,19844,-997.0703125,-2.9296875,-112.3046875,-0.01832595714594046,-0.01832595714594046,0.024434609527920613,-2121,-801,266,4066,319,100691
11:53:35.584,19845,-990.234375,5.859375,-116.2109375,-0.0317649923862968,-0.0158824961931484,0.03420845333908886,-2121,-801,266,4066,319,100691
11:53:35.604,19846,-980.46875,-0.0,-106.4453125,-0.051312680008633295,-0.03665191429188092,0.04642575810304917,-2121,-801,266,4066,319,100691
11:53:35.624,19847,-976.5625,7.8125,-108.3984375,-0.05619960191421742,-0.03787364476827696,0.058643062867009474,-2121,-801,266,4066,319,100691
11:53:35.645,19848,-980.46875,-6.8359375,-108.3984375,-0.06230825429619757,-0.05009094953223726,0.05986479334340551,-2121,-801,266,4066,319,100691
11:53:35.655,19849,-984.375,-8.7890625,-110.3515625,-0.0867428638241182,-0.051312680008633295,0.0635299847725936,-2126,-801,269,4066,319,100691
11:53:35.675,19850,-984.375,2.9296875,-115.234375,-0.11362093430483088,-0.05986479334340551,0.06475171524898964,-2126,-801,269,4066,319,100691
11:53:35.696,19851,-985.3515625,15.625,-114.2578125,-0.09407324668249437,-0.07452555906015788,0.07574728953655392,-2126,-801,269,4066,319,100691
11:53:35.716,19852,-996.09375,14.6484375,-104.4921875,-0.07208209810736582,-0.07574728953655392,0.0671951762017817,-2126,-801,269,4082,319,100679
11:53:35.726,19853,-989.2578125,-0.9765625,-92.7734375,-0.0952949771588904,-0.07086036763096978,0.05009094953223726,-2126,-801,269,4082,319,100679
11:53:35.747,19854,-974.609375,15.625,-106.4453125,-0.09773843811168245,-0.05742133239061345,0.0317649923862968,-2125,-799,264,4082,319,100679
11:53:35.767,19855,-965.8203125,36.1328125,-102.5390625,-0.11362093430483088,-0.06841690667817772,0.0024434609527920616,-2125,-799,264,4082,319,100679
11:53:35.788,19856,-975.5859375,43.9453125,-102.5390625,-0.08429940287132612,-0.0671951762017817,-0.0024434609527920616,-2125,-799,264,4082,319,100679
11:53:35.808,19857,-985.3515625,29.296875,-108.3984375,-0.020769418098732523,-0.06475171524898964,-0.0024434609527920616,-2125,-799,264,4082,319,100679
11:53:35.859,19858,-996.09375,12.6953125,-105.46875,-0.0158824961931484,-0.0830776723949301,0.008552113334772215,-2120,-797,258,4082,319,100679
11:53:35.879,19859,-990.234375,17.578125,-112.3046875,-0.05742133239061345,-0.09162978572970232,0.01710422666954443,-2120,-797,258,4082,319,100679
11:53:35.899,19860,-996.09375,37.109375,-112.3046875,-0.07452555906015788,-0.08185594191853407,0.019547687622336492,-2120,-797,258,4082,319,100679
11:53:35.910,19861,-1006.8359375,45.8984375,-104.4921875,-0.052534410485029326,-0.08796459430051422,0.03787364476827696,-2120,-797,258,4082,319,100679
11:53:35.930,19862,-990.234375,41.015625,-110.3515625,0.021991148575128554,-0.07086036763096978,0.05497787143782139,-2120,-797,258,4082,319,100679
11:53:35.950,19863,-991.2109375,13.671875,-92.7734375,-0.004886921905584123,-0.06963863715457375,0.06597344572538566,-2124,-797,257,4082,319,100679
11:53:35.971,19864,-997.0703125,17.578125,-106.4453125,-0.03420845333908886,-0.05009094953223726,0.06841690667817772,-2124,-797,257,4082,319,100679
11:53:35.992,19865,-983.3984375,35.15625,-96.6796875,-0.04031710572106901,-0.052534410485029326,0.0952949771588904,-2124,-797,257,4082,319,100679
11:53:36.2,19866,-983.3984375,28.3203125,-90.8203125,-0.03665191429188092,-0.06475171524898964,0.08429940287132612,-2124,-797,257,4082,319,100679
11:53:36.22,19867,-980.46875,5.859375,-82.03125,-0.03665191429188092,-0.058643062867009474,0.08185594191853407,-2124,-797,257,4082,319,100679
11:53:36.43,19868,-977.5390625,-4.8828125,-83.984375,-0.0635299847725936,-0.07086036763096978,0.08063421144213802,-2124,-792,272,4082,319,100679
11:53:36.63,19869,-982.421875,12.6953125,-93.75,-0.10995574287564278,-0.06841690667817772,0.052534410485029326,-2124,-792,272,4082,319,100679
11:53:36.74,19870,-990.234375,38.0859375,-88.8671875,-0.1551597705022959,-0.07696902001294993,0.039095375244672985,-2124,-792,272,4082,319,100679
11:53:36.94,19871,-1002.9296875,27.34375,-91.796875,-0.14049900478554353,-0.07574728953655392,0.026878070480712675,-2124,-792,272,4082,319,100679
11:53:36.115,19872,-996.09375,9.765625,-96.6796875,-0.15271630954950383,-0.07819075048934597,0.012217304763960306,-2124,-789,249,4082,319,100679
11:53:36.135,19873,-991.2109375,22.4609375,-97.65625,-0.2431243648028101,-0.0635299847725936,0.0158824961931484,-2124,-789,249,4082,319,100679
11:53:36.145,19874,-997.0703125,43.9453125,-89.84375,-0.2944370448114434,-0.0635299847725936,0.01832595714594046,-2124,-789,249,4082,319,100679
11:53:36.165,19875,-1005.859375,50.78125,-97.65625,-0.2822197400474831,-0.06230825429619757,0.02809980095710871,-2124,-789,249,4082,319,100679
11:53:36.277,19876,-994.140625,47.8515625,-87.890625,-0.2614503219487506,-0.05619960191421742,0.024434609527920613,-2124,-789,249,4082,319,100679
11:53:36.297,19877,-988.28125,34.1796875,-89.84375,-0.2577851305195625,-0.051312680008633295,0.01710422666954443,-2120,-787,262,4082,319,100679
11:53:36.318,19878,-988.28125,48.828125,-94.7265625,-0.2528982086139784,-0.058643062867009474,0.014660765716752368,-2120,-787,262,4082,319,100679
11:53:36.328,19879,-993.1640625,57.6171875,-79.1015625,-0.28099800957108706,-0.05986479334340551,0.03054326190990077,-2120,-787,262,4082,319,100679
11:53:36.348,19880,-987.3046875,60.546875,-67.3828125,-0.29932396671702755,-0.05986479334340551,0.02809980095710871,-2120,-787,262,4082,319,100679
11:53:36.369,19881,-988.28125,45.8984375,-74.21875,-0.3029891581462157,-0.07208209810736582,0.021991148575128554,-2120,-787,262,4082,319,100679
11:53:36.389,19882,-990.234375,46.875,-93.75,-0.3066543495754037,-0.06841690667817772,0.012217304763960306,-2125,-791,267,4082,319,100679
11:53:36.399,19883,-985.3515625,56.640625,-91.796875,-0.3029891581462157,-0.07452555906015788,0.009773843811168246,-2125,-791,267,4082,319,100679
11:53:36.420,19884,-974.609375,61.5234375,-88.8671875,-0.27733281814189903,-0.07819075048934597,-0.004886921905584123,-2125,-791,267,4082,319,100679
11:53:36.440,19885,-983.3984375,46.875,-91.796875,-0.26022859147235455,-0.07574728953655392,0.0,-2125,-791,267,4082,319,100679
11:53:36.461,19886,-1010.7421875,43.9453125,-87.890625,-0.2846632010002752,-0.0635299847725936,-0.014660765716752368,-2125,-791,267,4082,319,100679
11:53:36.481,19887,-1007.8125,79.1015625,-82.03125,-0.2871066619530672,-0.04031710572106901,-0.026878070480712675,-2121,-793,259,4082,319,100679
11:53:36.491,19888,-993.1640625,95.703125,-84.9609375,-0.2528982086139784,-0.03543018381548489,-0.03298672286269283,-2121,-793,259,4082,319,100679
11:53:36.512,19889,-987.3046875,79.1015625,-87.890625,-0.18814649336498873,-0.05986479334340551,-0.039095375244672985,-2121,-793,259,4082,319,100679
11:53:36.532,19890,-990.234375,47.8515625,-87.890625,-0.18325957145940464,-0.05375614096142535,-0.0158824961931484,-2121,-793,259,4082,319,100679
11:53:36.553,19891,-980.46875,53.7109375,-80.078125,-0.16126842288427604,-0.04520402762665313,-0.004886921905584123,-2125,-793,270,4082,319,100679
11:53:36.573,19892,-985.3515625,57.6171875,-83.0078125,-0.16859880574265224,-0.05619960191421742,0.0158824961931484,-2125,-793,270,4082,319,100679
11:53:36.584,19893,-994.140625,67.3828125,-76.171875,-0.1710422666954443,-0.05497787143782139,0.026878070480712675,-2125,-793,270,4082,319,100679
11:53:36.604,19894,-996.09375,56.640625,-75.1953125,-0.1661553447898602,-0.058643062867009474,0.05009094953223726,-2125,-793,270,4082,319,100679
11:53:36.625,19895,-998.046875,58.59375,-84.9609375,-0.1502728485967118,-0.058643062867009474,0.04153883619746505,-2125,-793,270,4082,319,100679
11:53:36.645,19896,-993.1640625,63.4765625,-94.7265625,-0.1356120828799594,-0.0671951762017817,0.012217304763960306,-2127,-795,265,4082,319,100679
11:53:36.655,19897,-983.3984375,59.5703125,-89.84375,-0.12950343049797927,-0.05619960191421742,0.006108652381980153,-2127,-795,265,4082,319,100679
11:53:36.676,19898,-985.3515625,51.7578125,-78.125,-0.13683381335635544,-0.06841690667817772,0.003665191429188092,-2127,-795,265,4082,319,100679
11:53:36.696,19899,-988.28125,62.5,-80.078125,-0.1429424657383356,-0.039095375244672985,0.0,-2127,-795,265,4082,319,100679
11:53:36.716,19900,-985.3515625,69.3359375,-79.1015625,-0.14049900478554353,-0.03298672286269283,-0.003665191429188092,-2127,-795,265,4082,319,100679
11:53:36.737,19901,-985.3515625,71.2890625,-86.9140625,-0.1307251609743753,-0.04398229715025711,-0.019547687622336492,-2126,-789,275,4082,319,100679
11:53:36.747,19902,-986.328125,73.2421875,-87.890625,-0.12583823906879116,-0.05742133239061345,-0.013439035240356337,-2126,-789,275,4066,319,100686
11:53:36.767,19903,-985.3515625,61.5234375,-84.9609375,-0.10506882097005865,-0.05619960191421742,0.0,-2126,-789,275,4066,319,100686
11:53:36.788,19904,-980.46875,53.7109375,-93.75,-0.10995574287564278,-0.06597344572538566,0.010995574287564277,-2126,-789,275,4066,319,100686
11:53:36.808,19905,-983.3984375,48.828125,-94.7265625,-0.14416419621473164,-0.07452555906015788,0.03054326190990077,-2127,-791,276,4066,319,100686
11:53:36.818,19906,-987.3046875,69.3359375,-100.5859375,-0.16004669240788005,-0.06230825429619757,0.029321531433504737,-2127,-791,276,4066,319,100686
11:53:36.839,19907,-980.46875,97.65625,-90.8203125,-0.18814649336498873,-0.07696902001294993,0.03543018381548489,-2127,-791,276,4066,319,100686
11:53:36.859,19908,-974.609375,95.703125,-90.8203125,-0.1466076571675237,-0.0867428638241182,0.03298672286269283,-2127,-791,276,4066,319,100686
11:53:36.880,19909,-979.4921875,88.8671875,-106.4453125,-0.10018189906447451,-0.09407324668249437,0.006108652381980153,-2127,-791,276,4066,319,100686
11:53:36.901,19910,-979.4921875,89.84375,-109.375,-0.06230825429619757,-0.08063421144213802,-0.026878070480712675,-2130,-794,270,4066,319,100686
11:53:36.911,19911,-976.5625,99.609375,-100.5859375,-0.039095375244672985,-0.0867428638241182,-0.04153883619746505,-2130,-794,270,4066,319,100686
11:53:36.931,19912,-973.6328125,96.6796875,-98.6328125,0.023212879051524585,-0.07574728953655392,-0.058643062867009474,-2130,-794,270,4066,319,100686
11:53:36.952,19913,-983.3984375,93.75,-86.9140625,0.02809980095710871,-0.06230825429619757,-0.05619960191421742,-2130,-794,270,4066,319,100686
11:53:36.972,19914,-995.1171875,98.6328125,-82.03125,0.024434609527920613,-0.04520402762665313,-0.05009094953223726,-2130,-794,270,4066,319,100686
11:53:36.993,19915,-993.1640625,104.4921875,-87.890625,0.05742133239061345,-0.039095375244672985,-0.04276056667386108,-2124,-788,276,4066,319,100686
11:53:37.3,19916,-988.28125,88.8671875,-88.8671875,0.0830776723949301,-0.051312680008633295,-0.012217304763960306,-2124,-788,276,4066,319,100686
11:53:37.23,19917,-995.1171875,70.3125,-88.8671875,0.07330382858376185,-0.058643062867009474,-0.007330382858376184,-2124,-788,276,4066,319,100686
11:53:37.44,19918,-983.3984375,78.125,-69.3359375,0.07330382858376185,-0.048869219055841226,-0.006108652381980153,-2124,-788,276,4066,319,100686
11:53:37.64,19919,-974.609375,75.1953125,-70.3125,0.07208209810736582,-0.05009094953223726,-0.009773843811168246,-2130,-793,266,4066,319,100686
11:53:37.74,19920,-985.3515625,80.078125,-68.359375,0.15271630954950383,-0.05375614096142535,0.0,-2130,-793,266,4066,319,100686
11:53:37.94,19921,-1007.8125,66.40625,-68.359375,0.16249015336067207,-0.03298672286269283,-0.023212879051524585,-2130,-793,266,4066,319,100686
11:53:37.115,19922,-1009.765625,77.1484375,-73.2421875,0.16371188383706814,-0.008552113334772215,-0.048869219055841226,-2130,-793,266,4066,319,100686
11:53:37.135,19923,-993.1640625,93.75,-62.5,0.2113593724165133,-0.009773843811168246,-0.07819075048934597,-2130,-793,266,4066,319,100686
11:53:37.155,19924,-988.28125,69.3359375,-72.265625,0.23945917337362205,-0.058643062867009474,-0.039095375244672985,-2128,-791,264,4066,319,100686
11:53:37.165,19925,-995.1171875,42.96875,-56.640625,0.2113593724165133,-0.0671951762017817,-0.0158824961931484,-2128,-791,264,4066,319,100686
11:53:37.186,19926,-1008.7890625,49.8046875,-55.6640625,0.20158552860534507,-0.024434609527920613,-0.019547687622336492,-2128,-791,264,4066,319,100686
11:53:37.206,19927,-1000.0,88.8671875,-55.6640625,0.23579398194443396,0.006108652381980153,-0.048869219055841226,-2128,-791,264,4066,319,100686
11:53:37.227,19928,-992.1875,77.1484375,-74.21875,0.2687807048071268,-0.051312680008633295,-0.02809980095710871,-2128,-791,264,4066,319,100686
11:53:37.247,19929,-996.09375,57.6171875,-82.03125,0.29810223624063154,-0.06963863715457375,0.006108652381980153,-2125,-791,268,4066,319,100686
11:53:37.257,19930,-1013.671875,43.9453125,-73.2421875,0.3017674276698196,-0.058643062867009474,0.048869219055841226,-2125,-791,268,4066,319,100686
11:53:37.277,19931,-1008.7890625,55.6640625,-69.3359375,0.24923301718479027,-0.03054326190990077,0.03420845333908886,-2125,-791,268,4066,319,100686
11:53:37.298,19932,-994.140625,77.1484375,-75.1953125,0.2504547476611863,-0.03787364476827696,0.03543018381548489,-2125,-791,268,4066,319,100686
11:53:37.318,19933,-981.4453125,74.21875,-77.1484375,0.31642819338657197,-0.06108652381980154,0.052534410485029326,-2125,-794,270,4066,319,100686
11:53:37.329,19934,-983.3984375,38.0859375,-80.078125,0.37629298672997746,-0.052534410485029326,0.07452555906015788,-2125,-794,270,4066,319,100686
11:53:37.390,19935,-985.3515625,13.671875,-82.03125,0.3469714552964728,-0.03665191429188092,0.0635299847725936,-2125,-794,270,4066,319,100686
11:53:37.410,19936,-979.4921875,14.6484375,-82.03125,0.29688050576423547,-0.03420845333908886,0.05009094953223726,-2125,-794,270,4066,319,100686
11:53:37.420,19937,-986.328125,20.5078125,-75.1953125,0.2748893571891069,-0.039095375244672985,0.04276056667386108,-2125,-794,270,4066,319,100686
11:53:37.441,19938,-987.3046875,19.53125,-72.265625,0.2822197400474831,-0.052534410485029326,0.03787364476827696,-2119,-785,273,4066,319,100686
11:53:37.462,19939,-995.1171875,0.9765625,-70.3125,0.21258110289290938,-0.0635299847725936,0.029321531433504737,-2119,-785,273,4066,319,100686
11:53:37.482,19940,-989.2578125,-6.8359375,-74.21875,0.16493361431346415,-0.04276056667386108,0.009773843811168246,-2119,-785,273,4066,319,100686
11:53:37.492,19941,-993.1640625,13.671875,-90.8203125,0.10262536001726659,-0.04153883619746505,0.0024434609527920616,-2119,-785,273,4066,319,100686
11:53:37.513,19942,-995.1171875,28.3203125,-92.7734375,0.08429940287132612,-0.03420845333908886,-0.0012217304763960308,-2119,-785,273,4066,319,100686
11:53:37.533,19943,-997.0703125,43.9453125,-90.8203125,0.07452555906015788,-0.03787364476827696,-0.006108652381980153,-2126,-789,261,4066,319,100686
11:53:37.554,19944,-1004.8828125,48.828125,-90.8203125,0.0830776723949301,-0.03787364476827696,-0.012217304763960306,-2126,-789,261,4066,319,100686
11:53:37.574,19945,-1000.0,58.59375,-97.65625,0.08552113334772216,-0.029321531433504737,-0.01832595714594046,-2126,-789,261,4066,319,100686
11:53:37.584,19946,-996.09375,78.125,-87.890625,0.1148426647812269,-0.03665191429188092,-0.023212879051524585,-2126,-789,261,4066,319,100686
11:53:37.605,19947,-998.046875,103.515625,-87.890625,0.15271630954950383,-0.03298672286269283,-0.04153883619746505,-2126,-788,251,4066,319,100686
11:53:37.625,19948,-993.1640625,104.4921875,-86.9140625,0.20036379812894903,-0.04276056667386108,-0.023212879051524585,-2126,-788,251,4066,319,100686
11:53:37.645,19949,-995.1171875,78.125,-92.7734375,0.2663372438543347,-0.06230825429619757,-0.021991148575128554,-2126,-788,251,4066,319,100686
11:53:37.665,19950,-996.09375,34.1796875,-91.796875,0.27611108766550296,-0.06597344572538566,0.0024434609527920616,-2126,-788,251,4066,319,100686
11:53:37.676,19951,-991.2109375,16.6015625,-99.609375,0.2296853295624538,-0.05009094953223726,0.006108652381980153,-2126,-788,251,4066,319,100686
11:53:37.696,19952,-984.375,33.203125,-99.609375,0.16371188383706814,-0.03543018381548489,0.0024434609527920616,-2123,-783,262,4072,319,100687
11:53:37.717,19953,-991.2109375,48.828125,-85.9375,0.1551597705022959,-0.020769418098732523,-0.004886921905584123,-2123,-783,262,4072,319,100687
11:53:37.737,19954,-1001.953125,48.828125,-86.9140625,0.17470745812463243,-0.008552113334772215,-0.013439035240356337,-2123,-783,262,4072,319,100687
11:53:37.757,19955,-1004.8828125,44.921875,-81.0546875,0.2138028333693054,-0.0012217304763960308,-0.03787364476827696,-2123,-783,262,4072,319,100687
11:53:37.767,19956,-997.0703125,34.1796875,-69.3359375,0.2101376419401173,-0.010995574287564277,-0.04398229715025711,-2123,-783,262,4072,319,100687
11:53:37.788,19957,-985.3515625,19.53125,-62.5,0.17837264955382048,-0.004886921905584123,-0.04276056667386108,-2128,-786,256,4072,319,100687
11:53:37.808,19958,-993.1640625,12.6953125,-66.40625,0.15760323145508798,0.006108652381980153,-0.03420845333908886,-2128,-786,256,4072,319,100687
11:53:37.829,19959,-988.28125,2.9296875,-65.4296875,0.11362093430483088,0.004886921905584123,-0.01832595714594046,-2128,-786,256,4072,319,100687
11:53:37.839,19960,-991.2109375,13.671875,-67.3828125,0.0635299847725936,0.009773843811168246,-0.013439035240356337,-2128,-786,256,4072,319,100687
11:53:37.860,19961,-991.2109375,23.4375,-70.3125,0.04153883619746505,0.020769418098732523,-0.0012217304763960308,-2126,-789,255,4072,319,100687
11:53:37.880,19962,-1000.0,29.296875,-70.3125,0.052534410485029326,-0.0012217304763960308,0.014660765716752368,-2126,-789,255,4072,319,100687
11:53:37.901,19963,-991.2109375,22.4609375,-70.3125,0.02809980095710871,-0.014660765716752368,0.05009094953223726,-2126,-789,255,4072,319,100687
11:53:37.921,19964,-989.2578125,29.296875,-77.1484375,0.026878070480712675,-0.019547687622336492,0.05497787143782139,-2126,-789,255,4072,319,100687
11:53:37.931,19965,-990.234375,41.9921875,-83.984375,0.008552113334772215,-0.012217304763960306,0.051312680008633295,-2126,-789,255,4072,319,100687
11:53:37.952,19966,-992.1875,54.6875,-96.6796875,0.03787364476827696,-0.010995574287564277,0.0476474885794452,-2129,-785,259,4072,319,100687
11:53:38.23,19967,-977.5390625,51.7578125,-95.703125,0.07574728953655392,-0.023212879051524585,0.04398229715025711,-2129,-785,259,4072,319,100687
11:53:38.43,19968,-989.2578125,29.296875,-93.75,0.08918632477691024,-0.024434609527920613,0.04520402762665313,-2129,-785,259,4072,319,100687
11:53:38.64,19969,-991.2109375,9.765625,-89.84375,0.0635299847725936,-0.019547687622336492,0.05742133239061345,-2129,-785,259,4072,319,100687
11:53:38.84,19970,-985.3515625,-2.9296875,-87.890625,0.003665191429188092,-0.006108652381980153,0.048869219055841226,-2129,-785,259,4072,319,100687
11:53:38.94,19971,-992.1875,24.4140625,-96.6796875,-0.06475171524898964,0.0,0.04031710572106901,-2124,-783,255,4072,319,100687
11:53:38.115,19972,-991.2109375,44.921875,-101.5625,-0.0952949771588904,0.010995574287564277,0.03298672286269283,-2124,-783,255,4072,319,100687
11:53:38.135,19973,-982.421875,49.8046875,-100.5859375,-0.07819075048934597,0.003665191429188092,0.024434609527920613,-2124,-783,255,4072,319,100687
11:53:38.156,19974,-982.421875,36.1328125,-94.7265625,-0.03054326190990077,-0.013439035240356337,0.025656340004316647,-2124,-783,255,4072,319,100687
11:53:38.176,19975,-980.46875,18.5546875,-90.8203125,-0.03054326190990077,-0.007330382858376184,0.024434609527920613,-2124,-783,255,4072,319,100687
11:53:38.187,19976,-974.609375,17.578125,-103.515625,-0.1038470904936626,-0.020769418098732523,0.023212879051524585,-2121,-783,261,4072,319,100687
11:53:38.207,19977,-968.75,25.390625,-105.46875,-0.17837264955382048,-0.0158824961931484,0.03298672286269283,-2121,-783,261,4072,319,100687
11:53:38.227,19978,-974.609375,37.109375,-113.28125,-0.2211332162276816,-0.013439035240356337,0.03787364476827696,-2121,-783,261,4072,319,100687
11:53:38.248,19979,-989.2578125,51.7578125,-115.234375,-0.2614503219487506,-0.03054326190990077,0.052534410485029326,-2121,-783,261,4072,319,100687
11:53:38.268,19980,-976.5625,66.40625,-124.0234375,-0.22602013813326569,-0.029321531433504737,0.020769418098732523,-2125,-783,260,4072,319,100687
11:53:38.279,19981,-972.65625,76.171875,-125.9765625,-0.20158552860534507,-0.02809980095710871,0.01710422666954443,-2125,-783,260,4072,319,100687
11:53:38.299,19982,-975.5859375,83.984375,-122.0703125,-0.1942551457469689,-0.03787364476827696,-0.003665191429188092,-2125,-783,260,4072,319,100687
11:53:38.320,19983,-972.65625,84.9609375,-125.9765625,-0.17592918860102844,-0.04520402762665313,-0.012217304763960306,-2125,-783,260,4072,319,100687
11:53:38.340,19984,-971.6796875,90.8203125,-123.046875,-0.1551597705022959,-0.03054326190990077,-0.029321531433504737,-2125,-783,260,4072,319,100687
11:53:38.350,19985,-978.515625,114.2578125,-118.1640625,-0.12828170002158323,-0.04398229715025711,-0.048869219055841226,-2122,-778,259,4072,319,100687
11:53:38.371,19986,-986.328125,107.421875,-98.6328125,-0.07452555906015788,-0.03787364476827696,-0.05375614096142535,-2122,-778,259,4072,319,100687
11:53:38.391,19987,-985.3515625,91.796875,-106.4453125,-0.06230825429619757,-0.0476474885794452,-0.05497787143782139,-2122,-778,259,4072,319,100687
11:53:38.412,19988,-983.3984375,86.9140625,-109.375,-0.03665191429188092,-0.04398229715025711,-0.05742133239061345,-2122,-778,259,4072,319,100687
11:53:38.432,19989,-976.5625,79.1015625,-105.46875,-0.026878070480712675,-0.03543018381548489,-0.03420845333908886,-2122,-778,259,4072,319,100687
11:53:38.442,19990,-971.6796875,96.6796875,-103.515625,0.023212879051524585,-0.019547687622336492,-0.03298672286269283,-2125,-778,259,4072,319,100687
11:53:38.514,19991,-988.28125,91.796875,-92.7734375,0.04276056667386108,-0.03420845333908886,0.0012217304763960308,-2125,-778,259,4072,319,100687
11:53:38.534,19992,-998.046875,86.9140625,-94.7265625,0.07941248096574201,-0.025656340004316647,0.003665191429188092,-2125,-778,259,4072,319,100687
11:53:38.555,19993,-981.4453125,75.1953125,-94.7265625,0.07208209810736582,-0.03420845333908886,0.03054326190990077,-2125,-778,259,4072,319,100687
11:53:38.575,19994,-982.421875,68.359375,-106.4453125,0.07208209810736582,-0.0317649923862968,0.04153883619746505,-2126,-780,258,4072,319,100687
11:53:38.595,19995,-1004.8828125,80.078125,-105.46875,0.10262536001726659,-0.021991148575128554,0.026878070480712675,-2126,-780,258,4072,319,100687
11:53:38.606,19996,-1007.8125,75.1953125,-105.46875,0.1233947781159991,-0.03298672286269283,0.014660765716752368,-2126,-780,258,4072,319,100687
11:53:38.626,19997,-998.046875,72.265625,-90.8203125,0.15760323145508798,-0.03787364476827696,-0.0024434609527920616,-2126,-780,258,4072,319,100687
11:53:38.646,19998,-996.09375,45.8984375,-91.796875,0.18814649336498873,-0.052534410485029326,0.009773843811168246,-2126,-780,258,4072,319,100687
11:53:38.667,19999,-1000.9765625,17.578125,-91.796875,0.17592918860102844,-0.0671951762017817,0.012217304763960306,-2124,-781,257,4072,319,100687
11:53:38.677,20000,-994.140625,19.53125,-98.6328125,0.1111774733520388,-0.04398229715025711,-0.004886921905584123,-2124,-781,257,4072,319,100687
11:53:38.697,20001,-988.28125,30.2734375,-101.5625,0.0476474885794452,-0.058643062867009474,-0.024434609527920613,-2124,-781,257,4072,319,100687
11:53:38.718,20002,-990.234375,32.2265625,-101.5625,0.03054326190990077,-0.05742133239061345,-0.003665191429188092,-2124,-781,257,4066,319,100685
11:53:38.738,20003,-994.140625,18.5546875,-102.5390625,0.07086036763096978,-0.06230825429619757,0.010995574287564277,-2124,-781,257,4066,319,100685
11:53:38.759,20004,-998.046875,25.390625,-105.46875,0.03420845333908886,-0.04153883619746505,-0.007330382858376184,-2121,-784,254,4066,319,100685
11:53:38.769,20005,-994.140625,41.015625,-115.234375,-0.021991148575128554,-0.04520402762665313,-0.026878070480712675,-2121,-784,254,4066,319,100685
11:53:38.789,20006,-985.3515625,43.9453125,-124.0234375,0.003665191429188092,-0.03665191429188092,-0.024434609527920613,-2121,-784,254,4066,319,100685
11:53:38.810,20007,-980.46875,39.0625,-119.140625,0.051312680008633295,-0.052534410485029326,0.010995574287564277,-2121,-784,254,4066,319,100685
11:53:38.830,20008,-975.5859375,29.296875,-115.234375,0.048869219055841226,-0.04153883619746505,0.0,-2125,-782,273,4066,319,100685
11:53:38.851,20009,-979.4921875,19.53125,-110.3515625,-0.012217304763960306,-0.03298672286269283,0.003665191429188092,-2125,-782,273,4066,319,100685
11:53:38.861,20010,-978.515625,30.2734375,-100.5859375,-0.0317649923862968,-0.025656340004316647,0.019547687622336492,-2125,-782,273,4066,319,100685
11:53:38.882,20011,-973.6328125,32.2265625,-107.421875,-0.04276056667386108,-0.024434609527920613,0.025656340004316647,-2125,-782,273,4066,319,100685
11:53:38.902,20012,-980.46875,49.8046875,-110.3515625,-0.052534410485029326,-0.026878070480712675,0.01832595714594046,-2125,-782,273,4066,319,100685
