Timestamp,SampleNr,AccX [mg],AccY [mg],AccZ [mg],GyrX [rad/s],GyrY [rad/s],GyrZ [rad/s],MagX [mGs],MagY [mGs],-MagZ [mGs],Battery [mV],Temperature [0.1C],Pressure[Pa]
12:18:26.745,17013,243.1640625,23.4375,-984.375,-0.020769418098732523,-0.03787364476827696,-0.1270599695451872,-1798,-521,-12,4118,311,100604
12:18:26.755,17014,241.2109375,16.6015625,-984.375,-0.05986479334340551,-0.03787364476827696,-0.1502728485967118,-1804,-522,-13,4118,311,100604
12:18:26.776,17015,235.3515625,15.625,-975.5859375,-0.07086036763096978,-0.0317649923862968,-0.1661553447898602,-1805,-523,-13,4118,311,100604
12:18:26.796,17016,238.28125,28.3203125,-987.3046875,-0.06230825429619757,-0.03665191429188092,-0.17837264955382048,-1803,-519,-12,4118,311,100604
12:18:26.806,17017,240.234375,28.3203125,-977.5390625,-0.06963863715457375,-0.04276056667386108,-0.19303341527057283,-1801,-520,-10,4118,311,100604
12:18:26.827,17018,235.3515625,36.1328125,-1000.0,-0.06108652381980154,-0.04642575810304917,-0.1942551457469689,-1808,-518,-9,4118,311,100604
12:18:26.847,17019,233.3984375,58.59375,-991.2109375,-0.05742133239061345,-0.048869219055841226,-0.19303341527057283,-1807,-518,-11,4118,311,100604
12:18:26.868,17020,224.609375,58.59375,-984.375,-0.05009094953223726,-0.04642575810304917,-0.16859880574265224,-1787,-515,-12,4118,311,100604
12:18:26.889,17021,224.609375,69.3359375,-1000.0,-0.052534410485029326,-0.024434609527920613,-0.13683381335635544,-1808,-522,-11,4118,311,100604
12:18:26.899,17022,221.6796875,66.40625,-1004.8828125,-0.04031710572106901,-0.020769418098732523,-0.1111774733520388,-1811,-519,-16,4118,311,100604
12:18:26.919,17023,224.609375,55.6640625,-1005.859375,-0.05009094953223726,-0.01710422666954443,-0.08552113334772216,-1809,-521,-15,4118,311,100604
12:18:26.940,17024,226.5625,56.640625,-1001.953125,-0.07941248096574201,-0.020769418098732523,-0.05986479334340551,-1807,-518,-19,4118,311,100604
12:18:26.960,17025,223.6328125,50.78125,-990.234375,-0.1233947781159991,-0.024434609527920613,-0.06475171524898964,-1807,-519,-20,4118,311,100604
12:18:26.970,17026,222.65625,59.5703125,-983.3984375,-0.17470745812463243,-0.012217304763960306,-0.09773843811168245,-1808,-516,-21,4118,311,100604
12:18:26.991,17027,234.375,74.21875,-980.46875,-0.21258110289290938,-0.014660765716752368,-0.10262536001726659,-1803,-511,-13,4118,311,100604
12:18:27.11,17028,228.515625,99.609375,-981.4453125,-0.21991148575128555,-0.012217304763960306,-0.08552113334772216,-1809,-510,-7,4118,311,100604
12:18:27.32,17029,218.75,88.8671875,-990.234375,-0.12950343049797927,-0.03420845333908886,-0.05986479334340551,-1810,-510,-13,4118,311,100604
12:18:27.53,17030,225.5859375,81.0546875,-988.28125,-0.13683381335635544,-0.039095375244672985,-0.05497787143782139,-1805,-510,-12,4118,311,100604
12:18:27.62,17031,221.6796875,78.125,-984.375,-0.17592918860102844,-0.029321531433504737,-0.048869219055841226,-1805,-507,-18,4118,311,100604
12:18:27.83,17032,222.65625,86.9140625,-990.234375,-0.2101376419401173,-0.013439035240356337,-0.03787364476827696,-1804,-509,-15,4118,311,100604
12:18:27.103,17033,220.703125,101.5625,-982.421875,-0.20647245051092922,-0.008552113334772215,-0.03298672286269283,-1813,-511,-18,4118,311,100604
12:18:27.123,17034,225.5859375,102.5390625,-985.3515625,-0.16859880574265224,-0.0158824961931484,-0.03420845333908886,-1804,-504,-12,4118,311,100604
12:18:27.143,17035,224.609375,111.328125,-998.046875,-0.11606439525762292,-0.03787364476827696,-0.03420845333908886,-1810,-502,-14,4118,311,100604
12:18:27.154,17036,211.9140625,109.375,-1008.7890625,-0.03298672286269283,-0.04642575810304917,-0.0476474885794452,-1807,-505,-5,4118,311,100604
12:18:27.174,17037,214.84375,96.6796875,-1002.9296875,0.023212879051524585,-0.025656340004316647,-0.0476474885794452,-1813,-507,-18,4118,311,100604
12:18:27.195,17038,211.9140625,87.890625,-1000.9765625,-0.006108652381980153,-0.019547687622336492,-0.024434609527920613,-1809,-503,-18,4118,311,100604
12:18:27.215,17039,215.8203125,99.609375,-1012.6953125,-0.01832595714594046,-0.008552113334772215,-0.025656340004316647,-1811,-506,-20,4118,311,100604
12:18:27.225,17040,213.8671875,103.515625,-1026.3671875,0.03420845333908886,-0.012217304763960306,-0.02809980095710871,-1810,-504,-10,4118,311,100604
12:18:27.246,17041,212.890625,85.9375,-1022.4609375,0.08918632477691024,-0.0012217304763960308,-0.03665191429188092,-1805,-506,-12,4118,311,100604
12:18:27.267,17042,210.9375,89.84375,-1024.4140625,0.06841690667817772,0.0012217304763960308,-0.04031710572106901,-1810,-499,-21,4118,311,100604
12:18:27.287,17043,204.1015625,89.84375,-1016.6015625,0.04642575810304917,0.01832595714594046,-0.024434609527920613,-1813,-505,-20,4118,311,100604
12:18:27.308,17044,211.9140625,97.65625,-1015.625,0.026878070480712675,0.03420845333908886,-0.013439035240356337,-1807,-505,-6,4118,311,100604
12:18:27.318,17045,210.9375,99.609375,-1011.71875,0.026878070480712675,0.048869219055841226,-0.019547687622336492,-1809,-510,-2,4118,311,100604
12:18:27.339,17046,209.9609375,91.796875,-1000.0,0.024434609527920613,0.04520402762665313,-0.009773843811168246,-1811,-512,-12,4118,311,100604
12:18:27.359,17047,215.8203125,92.7734375,-1002.9296875,0.02809980095710871,0.04398229715025711,0.0,-1808,-505,-19,4118,311,100604
12:18:27.380,17048,213.8671875,92.7734375,-996.09375,0.023212879051524585,0.039095375244672985,-0.0158824961931484,-1797,-502,-14,4118,311,100604
12:18:27.390,17049,215.8203125,88.8671875,-996.09375,0.013439035240356337,0.051312680008633295,-0.014660765716752368,-1808,-508,-22,4118,311,100604
12:18:27.410,17050,219.7265625,94.7265625,-989.2578125,-0.0158824961931484,0.06108652381980154,-0.0024434609527920616,-1806,-508,-13,4118,311,100604
12:18:27.431,17051,218.75,99.609375,-982.421875,-0.004886921905584123,0.05742133239061345,0.0012217304763960308,-1807,-503,-22,4118,311,100604
12:18:27.451,17052,219.7265625,97.65625,-981.4453125,0.03665191429188092,0.05375614096142535,0.0012217304763960308,-1806,-510,-14,4118,311,100605
12:18:27.471,17053,216.796875,85.9375,-975.5859375,0.06108652381980154,0.04520402762665313,0.006108652381980153,-1813,-509,-6,4118,311,100605
12:18:27.482,17054,222.65625,76.171875,-974.609375,0.023212879051524585,0.019547687622336492,0.029321531433504737,-1806,-507,-17,4118,311,100605
12:18:27.502,17055,219.7265625,77.1484375,-963.8671875,0.0024434609527920616,0.013439035240356337,0.04031710572106901,-1789,-503,-19,4118,311,100605
12:18:27.522,17056,215.8203125,76.171875,-972.65625,0.0158824961931484,0.021991148575128554,0.014660765716752368,-1807,-511,-13,4118,311,100605
12:18:27.542,17057,221.6796875,69.3359375,-984.375,0.039095375244672985,0.020769418098732523,-0.007330382858376184,-1804,-505,-9,4118,311,100605
12:18:27.563,17058,221.6796875,73.2421875,-980.46875,0.04153883619746505,0.008552113334772215,-0.024434609527920613,-1807,-509,-13,4118,311,100605
12:18:27.573,17059,221.6796875,74.21875,-979.4921875,0.03787364476827696,-0.0012217304763960308,-0.021991148575128554,-1807,-504,-15,4118,311,100605
12:18:27.593,17060,210.9375,83.0078125,-984.375,0.023212879051524585,-0.013439035240356337,-0.02809980095710871,-1805,-508,-21,4118,311,100605
12:18:27.614,17061,207.03125,82.03125,-993.1640625,0.03665191429188092,-0.008552113334772215,-0.02809980095710871,-1806,-511,-18,4118,311,100605
12:18:27.634,17062,218.75,80.078125,-995.1171875,0.04520402762665313,-0.0024434609527920616,-0.0158824961931484,-1797,-503,-15,4118,311,100605
12:18:27.645,17063,219.7265625,96.6796875,-993.1640625,0.08429940287132612,-0.006108652381980153,-0.020769418098732523,-1806,-513,-12,4118,311,100605
12:18:27.665,17064,214.84375,94.7265625,-992.1875,0.15760323145508798,-0.0158824961931484,-0.014660765716752368,-1806,-514,-13,4118,311,100605
12:18:27.686,17065,212.890625,80.078125,-995.1171875,0.20158552860534507,-0.023212879051524585,0.0,-1808,-508,-11,4118,311,100605
12:18:27.706,17066,215.8203125,60.546875,-996.09375,0.15393804002589986,-0.03054326190990077,0.023212879051524585,-1802,-516,-9,4118,311,100605
12:18:27.716,17067,210.9375,49.8046875,-986.328125,0.06597344572538566,0.007330382858376184,0.007330382858376184,-1806,-513,-18,4118,311,100605
12:18:27.737,17068,221.6796875,64.453125,-976.5625,0.012217304763960306,0.010995574287564277,0.0012217304763960308,-1810,-512,-13,4118,311,100605
12:18:27.757,17069,221.6796875,81.0546875,-963.8671875,0.012217304763960306,-0.003665191429188092,-0.0012217304763960308,-1801,-518,-21,4118,311,100605
12:18:27.777,17070,212.890625,78.125,-953.125,0.04520402762665313,-0.012217304763960306,0.004886921905584123,-1807,-520,-13,4118,311,100605
12:18:27.798,17071,208.984375,66.40625,-938.4765625,0.05009094953223726,-0.0476474885794452,0.04153883619746505,-1807,-517,-13,4118,311,100605
12:18:27.808,17072,222.65625,54.6875,-939.453125,-0.01710422666954443,-0.07086036763096978,0.052534410485029326,-1806,-516,-11,4118,311,100605
12:18:27.828,17073,216.796875,62.5,-958.0078125,-0.004886921905584123,-0.08429940287132612,0.0317649923862968,-1808,-518,-25,4118,311,100605
12:18:27.849,17074,213.8671875,57.6171875,-949.21875,0.02809980095710871,-0.09040805525330627,-0.003665191429188092,-1814,-515,-17,4118,311,100605
12:18:27.869,17075,209.9609375,50.78125,-939.453125,0.0024434609527920616,-0.09040805525330627,-0.009773843811168246,-1809,-521,-15,4118,311,100605
12:18:27.889,17076,213.8671875,69.3359375,-966.796875,0.010995574287564277,-0.1270599695451872,0.008552113334772215,-1805,-519,-12,4118,311,100605
12:18:27.899,17077,203.125,58.59375,-987.3046875,0.11606439525762292,-0.14416419621473164,-0.004886921905584123,-1815,-520,-18,4118,311,100605
12:18:27.920,17078,199.21875,36.1328125,-1008.7890625,0.14049900478554353,-0.1429424657383356,-0.024434609527920613,-1814,-515,-7,4118,311,100605
12:18:27.941,17079,196.2890625,42.96875,-1026.3671875,0.0635299847725936,-0.12828170002158323,-0.04276056667386108,-1824,-519,-9,4118,311,100605
12:18:27.961,17080,193.359375,44.921875,-1027.34375,0.03787364476827696,-0.10873401239924674,-0.03298672286269283,-1821,-521,-18,4118,311,100605
12:18:27.972,17081,194.3359375,56.640625,-1005.859375,0.010995574287564277,-0.08796459430051422,-0.026878070480712675,-1801,-516,-15,4118,311,100605
12:18:27.992,17082,191.40625,70.3125,-999.0234375,0.020769418098732523,-0.08185594191853407,-0.013439035240356337,-1803,-517,-16,4118,311,100605
12:18:28.12,17083,193.359375,74.21875,-981.4453125,0.0671951762017817,-0.09040805525330627,-0.003665191429188092,-1812,-526,-14,4118,311,100605
12:18:28.33,17084,179.6875,60.546875,-936.5234375,0.03665191429188092,-0.10140362954087055,0.008552113334772215,-1824,-526,-18,4118,311,100605
12:18:28.53,17085,182.6171875,59.5703125,-897.4609375,-0.058643062867009474,-0.10995574287564278,0.039095375244672985,-1828,-522,-16,4118,311,100605
12:18:28.63,17086,191.40625,63.4765625,-863.28125,-0.16126842288427604,-0.1356120828799594,0.06108652381980154,-1831,-522,-7,4118,311,100605
12:18:28.83,17087,185.546875,61.5234375,-829.1015625,-0.24434609527920617,-0.18448130193580062,0.09162978572970232,-1828,-522,-18,4118,311,100605
12:18:28.103,17088,181.640625,60.546875,-808.59375,-0.2651155133779387,-0.2858849314766712,0.0952949771588904,-1828,-518,-13,4118,311,100605
12:18:28.124,17089,175.78125,69.3359375,-814.453125,-0.2541199390903744,-0.3652974124424132,0.0830776723949301,-1839,-519,-26,4118,311,100605
12:18:28.144,17090,162.109375,78.125,-820.3125,-0.18814649336498873,-0.44959681531373935,0.06230825429619757,-1825,-511,-15,4118,311,100605
12:18:28.154,17091,145.5078125,83.0078125,-851.5625,-0.08429940287132612,-0.5314527572322734,0.052534410485029326,-1841,-512,-16,4118,311,100605
12:18:28.174,17092,126.953125,77.1484375,-903.3203125,0.039095375244672985,-0.5913175505756788,0.048869219055841226,-1852,-516,-19,4118,311,100605
12:18:28.215,17093,110.3515625,71.2890625,-916.015625,0.08552113334772216,-0.6206390820091836,0.04398229715025711,-1853,-514,-23,4118,311,100605
12:18:28.235,17094,103.515625,65.4296875,-934.5703125,0.10262536001726659,-0.6243042734383717,0.04276056667386108,-1852,-515,-22,4118,311,100605
12:18:28.246,17095,89.84375,68.359375,-944.3359375,0.12095131716320705,-0.6389650391551241,0.04398229715025711,-1862,-522,-18,4118,311,100605
12:18:28.266,17096,76.171875,61.5234375,-937.5,0.1893682238413848,-0.6695083010650249,0.08063421144213802,-1877,-524,-27,4118,311,100605
12:18:28.358,17097,66.40625,55.6640625,-928.7109375,0.20158552860534507,-0.6902777191637574,0.09285151620609834,-1866,-523,-20,4118,311,100605
12:18:28.379,17098,55.6640625,47.8515625,-900.390625,0.16249015336067207,-0.7183775201208661,0.05375614096142535,-1887,-527,-31,4118,311,100605
12:18:28.399,17099,36.1328125,65.4296875,-884.765625,0.09773843811168245,-0.748920782030767,0.024434609527920613,-1892,-526,-32,4118,311,100605
12:18:28.410,17100,8.7890625,79.1015625,-886.71875,0.06963863715457375,-0.7892378877518359,0.04031710572106901,-1898,-527,-32,4118,311,100605
12:18:28.430,17101,-9.765625,93.75,-903.3203125,0.08063421144213802,-0.8600982553828056,0.06963863715457375,-1908,-527,-21,4118,311,100605
12:18:28.450,17102,-34.1796875,94.7265625,-922.8515625,0.17470745812463243,-0.8991936306274787,0.0830776723949301,-1920,-528,-33,4112,311,100601
12:18:28.470,17103,-49.8046875,51.7578125,-930.6640625,0.2076941809873252,-0.9309586230137754,0.10018189906447451,-1930,-532,-36,4112,311,100601
12:18:28.481,17104,-65.4296875,24.4140625,-921.875,-0.05497787143782139,-0.9346238144429636,0.13194689145077132,-1919,-527,-39,4112,311,100601
12:18:28.501,17105,-98.6328125,69.3359375,-947.265625,-0.09040805525330627,-0.9468411192069238,0.11728612573401895,-1948,-531,-36,4112,311,100601
12:18:28.521,17106,-119.140625,83.984375,-966.796875,-0.004886921905584123,-0.9761626506404286,0.10629055144645469,-1955,-534,-45,4112,311,100601
12:18:28.542,17107,-127.9296875,67.3828125,-967.7734375,0.0158824961931484,-0.9883799554043888,0.1343903524035634,-1959,-529,-42,4112,311,100601
12:18:28.562,17108,-176.7578125,71.2890625,-952.1484375,-0.04642575810304917,-0.992045146833577,0.15149457907310784,-1975,-532,-53,4112,311,100601
12:18:28.572,17109,-208.0078125,64.453125,-923.828125,-0.09407324668249437,-0.9883799554043888,0.16493361431346415,-1987,-526,-61,4112,311,100601
12:18:28.592,17110,-211.9140625,58.59375,-905.2734375,-0.2076941809873252,-0.994488607786369,0.15882496193148402,-1987,-523,-46,4112,311,100601
12:18:28.613,17111,-244.140625,48.828125,-905.2734375,-0.33719761148530447,-1.0152580258851016,0.16859880574265224,-1996,-518,-68,4112,311,100601
12:18:28.633,17112,-248.046875,48.828125,-915.0390625,-0.45814892864851153,-1.072679358275715,0.18570303241219668,-2009,-523,-62,4112,311,100601
12:18:28.653,17113,-243.1640625,83.0078125,-890.625,-0.42516220578581876,-1.1313224211427244,0.1466076571675237,-2012,-523,-75,4112,311,100601
12:18:28.664,17114,-311.5234375,110.3515625,-889.6484375,-0.2614503219487506,-1.1691960659110014,0.12217304763960309,-2027,-515,-73,4112,311,100601
12:18:28.684,17115,-353.515625,96.6796875,-907.2265625,-0.05009094953223726,-1.1875220230569419,0.1307251609743753,-2041,-514,-77,4112,311,100601
12:18:28.704,17116,-329.1015625,44.921875,-882.8125,-0.04153883619746505,-1.2168435544904468,0.1502728485967118,-2041,-511,-89,4112,311,100601
12:18:28.725,17117,-335.9375,87.890625,-905.2734375,0.0671951762017817,-1.2877039221214164,0.13805554383275148,-2050,-511,-98,4112,311,100601
12:18:28.745,17118,-413.0859375,99.609375,-928.7109375,0.5106833391335408,-1.354899098323198,0.11850785621041499,-2054,-511,-92,4112,311,100601
12:18:28.755,17119,-458.984375,28.3203125,-889.6484375,0.8429940287132612,-1.3756685164219307,0.1466076571675237,-2069,-519,-104,4112,311,100601
12:18:28.776,17120,-466.796875,-32.2265625,-837.890625,0.8124507668033605,-1.387885821185891,0.1905899543177808,-2083,-517,-105,4112,311,100601
12:18:28.796,17121,-497.0703125,-37.109375,-891.6015625,0.4935791124639964,-1.3829988992803068,0.2186897552748895,-2090,-524,-126,4112,311,100601
12:18:28.816,17122,-487.3046875,-30.2734375,-903.3203125,0.2944370448114434,-1.353677367846802,0.20525072003453318,-2100,-520,-135,4112,311,100601
12:18:28.826,17123,-484.375,3.90625,-809.5703125,0.012217304763960306,-1.3109168011729413,0.17715091907742447,-2116,-524,-147,4112,311,100601
12:18:28.847,17124,-575.1953125,60.546875,-723.6328125,-0.3262020371977402,-1.2913691135506045,0.15149457907310784,-2127,-519,-150,4112,311,100601
12:18:28.867,17125,-629.8828125,84.9609375,-778.3203125,-0.39339721339952194,-1.3096950706965451,0.20647245051092922,-2118,-518,-158,4112,311,100601
12:18:28.888,17126,-616.2109375,72.265625,-765.625,-0.39461894387591795,-1.3964379345206632,0.2675589743307307,-2142,-514,-171,4112,311,100601
12:18:28.908,17127,-604.4921875,92.7734375,-720.703125,-0.3420845333908886,-1.473406954533613,0.27611108766550296,-2149,-509,-173,4112,311,100601
12:18:28.918,17128,-631.8359375,161.1328125,-675.78125,-0.16737707526625623,-1.5161675212074743,0.18570303241219668,-2153,-508,-178,4112,311,100601
12:18:28.938,17129,-738.28125,183.59375,-687.5,0.0867428638241182,-1.5357152088298107,0.04031710572106901,-2161,-506,-199,4112,311,100601
12:18:28.959,17130,-763.671875,125.9765625,-753.90625,0.12217304763960309,-1.583362697409256,0.06963863715457375,-2175,-511,-216,4112,311,100601
12:18:28.979,17131,-759.765625,67.3828125,-745.1171875,-0.05619960191421742,-1.6224580726539288,0.15271630954950383,-2176,-508,-217,4112,311,100601
12:18:28.989,17132,-750.0,74.21875,-679.6875,-0.3017674276698196,-1.6114624983663646,0.17837264955382048,-2167,-499,-243,4112,311,100601
12:18:29.9,17133,-795.8984375,155.2734375,-627.9296875,-0.3726277953007894,-1.5601498183577314,0.11728612573401895,-2193,-500,-240,4112,311,100601
12:18:29.29,17134,-873.046875,189.453125,-696.2890625,-0.2516764781375823,-1.547932513593771,0.10262536001726659,-2198,-495,-246,4112,311,100601
12:18:29.50,17135,-923.828125,134.765625,-721.6796875,-0.1478293876439197,-1.5796975059800675,0.16982053621904827,-2202,-499,-273,4112,311,100601
12:18:29.70,17136,-909.1796875,105.46875,-696.2890625,-0.23579398194443396,-1.6041321155079884,0.2748893571891069,-2209,-492,-279,4112,311,100601
12:18:29.80,17137,-904.296875,145.5078125,-621.09375,-0.12583823906879116,-1.6139059593191567,0.3090978105281958,-2213,-488,-302,4112,311,100601
12:18:29.101,17138,-925.78125,141.6015625,-639.6484375,0.1111774733520388,-1.6016886545551965,0.3029891581462157,-2212,-486,-301,4112,311,100601
12:18:29.121,17139,-936.5234375,97.65625,-666.015625,0.22846359908605776,-1.6139059593191567,0.33719761148530447,-2215,-482,-323,4112,311,100601
12:18:29.141,17140,-960.9375,60.546875,-634.765625,0.12217304763960309,-1.6126842288427605,0.3909537524467298,-2226,-485,-350,4112,311,100601
12:18:29.162,17141,-992.1875,47.8515625,-565.4296875,-0.021991148575128554,-1.5821409669328599,0.43860124102617504,-2226,-477,-341,4112,311,100601
12:18:29.192,17142,-1012.6953125,95.703125,-533.203125,-0.0024434609527920616,-1.5247196345422465,0.4312708581677988,-2228,-475,-357,4112,311,100601
12:18:29.212,17143,-1026.3671875,128.90625,-541.015625,0.16493361431346415,-1.4538592669112766,0.3787364476827696,-2233,-469,-377,4112,311,100601
12:18:29.233,17144,-998.046875,106.4453125,-497.0703125,0.09285151620609834,-1.3707815945163466,0.36163222101322506,-2235,-473,-385,4112,311,100601
12:18:29.253,17145,-938.4765625,76.171875,-463.8671875,-0.2675589743307307,-1.2803735392630404,0.3445279943436807,-2223,-463,-401,4112,311,100601
12:18:29.263,17146,-898.4375,93.75,-399.4140625,-1.1252137687607444,-1.150870108765061,0.3042108886226117,-2236,-462,-414,4112,311,100601
12:18:29.283,17147,-916.015625,168.9453125,-391.6015625,-1.4049900478554356,-1.0983356982800316,0.2614503219487506,-2241,-460,-410,4112,311,100601
12:18:29.304,17148,-950.1953125,208.984375,-388.671875,-1.386664090709495,-1.0910053154216555,0.23335052099164189,-2238,-454,-431,4112,311,100601
12:18:29.344,17149,-987.3046875,258.7890625,-369.140625,-1.2046262497264864,-1.1093312725675961,0.1820378409830086,-2229,-457,-433,4112,311,100601
12:18:29.354,17150,-1004.8828125,297.8515625,-337.890625,-0.9175195877734192,-1.115439924949576,0.10995574287564278,-2242,-455,-444,4112,311,100601
12:18:29.374,17151,-1018.5546875,291.9921875,-325.1953125,-0.6878342582109653,-1.112996463996784,0.026878070480712675,-2241,-449,-437,4112,311,100601
12:18:29.394,17152,-1059.5703125,298.828125,-346.6796875,-0.5448917924726296,-1.1007791592328238,-0.0317649923862968,-2246,-452,-460,4112,311,100615
12:18:29.415,17153,-1062.5,285.15625,-369.140625,-0.4569271981721155,-1.0800097411340912,-0.03420845333908886,-2232,-448,-471,4112,311,100615
12:18:29.425,17154,-1043.9453125,289.0625,-374.0234375,-0.3017674276698196,-1.070235897322923,0.025656340004316647,-2232,-450,-483,4112,311,100615
12:18:29.446,17155,-1011.71875,276.3671875,-368.1640625,-0.17592918860102844,-1.0225884087434776,0.0635299847725936,-2235,-454,-484,4112,311,100615
12:18:29.487,17156,-1015.625,281.25,-326.171875,-0.08918632477691024,-0.9443976582541318,0.07208209810736582,-2233,-453,-487,4112,311,100615
12:18:29.507,17157,-1020.5078125,274.4140625,-292.96875,-0.07452555906015788,-0.8539896030008255,0.04153883619746505,-2238,-450,-501,4112,311,100615
12:18:29.517,17158,-1009.765625,257.8125,-294.921875,-0.09651670763528641,-0.7623598172711232,0.009773843811168246,-2234,-452,-504,4112,311,100615
12:18:29.538,17159,-997.0703125,264.6484375,-281.25,-0.09773843811168245,-0.6902777191637574,-0.013439035240356337,-2235,-455,-515,4112,311,100615
12:18:29.558,17160,-995.1171875,274.4140625,-253.90625,-0.052534410485029326,-0.6328563867731439,-0.03543018381548489,-2229,-451,-508,4112,311,100615
12:18:29.578,17161,-1036.1328125,272.4609375,-212.890625,-0.0158824961931484,-0.5827654372409066,-0.021991148575128554,-2231,-452,-526,4112,311,100615
12:18:29.588,17162,-1041.9921875,250.0,-183.59375,0.014660765716752368,-0.5045746867515608,0.03298672286269283,-2235,-449,-525,4112,311,100615
12:18:29.609,17163,-1022.4609375,238.28125,-171.875,0.08796459430051422,-0.4691445029360758,0.08552113334772216,-2228,-455,-534,4112,311,100615
12:18:29.630,17164,-1010.7421875,251.953125,-158.203125,0.22724186860966175,-0.44959681531373935,0.1270599695451872,-2234,-450,-530,4112,311,100615
12:18:29.650,17165,-1008.7890625,253.90625,-132.8125,0.437379510549779,-0.43371431912059094,0.14538592669112765,-2231,-447,-542,4112,311,100615
12:18:29.671,17166,-1007.8125,231.4453125,-105.46875,0.6401867696315202,-0.4056145181634822,0.1661553447898602,-2230,-444,-537,4112,311,100615
12:18:29.681,17167,-1016.6015625,208.984375,-104.4921875,0.8100073058505685,-0.3824016391119576,0.15271630954950383,-2212,-428,-554,4112,311,100615
12:18:29.702,17168,-1008.7890625,108.3984375,-167.96875,0.6426302305843121,-0.2956587752878394,0.1111774733520388,-2229,-433,-550,4112,311,100615
12:18:29.722,17169,-1008.7890625,85.9375,-240.234375,0.2907718533822553,-0.15393804002589986,0.0476474885794452,-2229,-431,-560,4112,311,100615
12:18:29.752,17170,-1005.859375,113.28125,-240.234375,-0.3090978105281958,-0.0317649923862968,-0.009773843811168246,-2227,-432,-544,4112,311,100615
12:18:29.773,17171,-979.4921875,183.59375,-180.6640625,-0.003665191429188092,0.05375614096142535,-0.03298672286269283,-2228,-432,-556,4112,311,100615
12:18:29.793,17172,-963.8671875,235.3515625,-115.234375,0.11606439525762292,0.05742133239061345,-0.04031710572106901,-2223,-431,-549,4112,311,100615
12:18:29.813,17173,-948.2421875,263.671875,-63.4765625,0.28344147052387914,0.039095375244672985,-0.01710422666954443,-2221,-437,-557,4112,311,100615
12:18:29.834,17174,-939.453125,261.71875,-37.109375,0.3787364476827696,0.012217304763960306,-0.008552113334772215,-2227,-424,-552,4112,311,100615
12:18:29.844,17175,-930.6640625,273.4375,-12.6953125,0.4434881629317592,-0.008552113334772215,-0.004886921905584123,-2228,-428,-550,4112,311,100615
12:18:29.864,17176,-920.8984375,287.109375,4.8828125,0.514348530562729,-0.010995574287564277,-0.025656340004316647,-2228,-427,-545,4112,311,100615
12:18:29.905,17177,-931.640625,262.6953125,22.4609375,0.5461135229490258,-0.01832595714594046,-0.03665191429188092,-2213,-417,-549,4112,311,100615
12:18:29.925,17178,-939.453125,222.65625,18.5546875,0.4153883619746504,-0.004886921905584123,-0.05009094953223726,-2222,-421,-544,4112,311,100615
12:18:29.935,17179,-931.640625,226.5625,11.71875,0.16371188383706814,0.004886921905584123,-0.07330382858376185,-2221,-424,-548,4112,311,100615
12:18:29.956,17180,-926.7578125,245.1171875,8.7890625,0.08429940287132612,0.0,-0.07208209810736582,-2225,-421,-553,4112,311,100615
12:18:29.976,17181,-938.4765625,250.9765625,5.859375,0.06841690667817772,-0.007330382858376184,-0.0635299847725936,-2218,-416,-553,4112,311,100615
12:18:29.996,17182,-939.453125,259.765625,-8.7890625,0.05986479334340551,-0.012217304763960306,-0.04276056667386108,-2226,-417,-555,4112,311,100615
12:18:30.17,17183,-942.3828125,246.09375,-16.6015625,0.03543018381548489,-0.01832595714594046,-0.02809980095710871,-2229,-424,-551,4112,311,100615
12:18:30.27,17184,-955.078125,242.1875,-20.5078125,-0.019547687622336492,-0.013439035240356337,-0.03054326190990077,-2229,-430,-555,4112,311,100615
12:18:30.48,17185,-956.0546875,253.90625,-24.4140625,-0.039095375244672985,-0.008552113334772215,-0.012217304763960306,-2226,-423,-556,4112,311,100615
12:18:30.68,17186,-963.8671875,262.6953125,-25.390625,0.010995574287564277,-0.007330382858376184,0.0,-2226,-425,-547,4112,311,100615
12:18:30.89,17187,-961.9140625,248.046875,-35.15625,0.06475171524898964,-0.03298672286269283,0.04153883619746505,-2225,-426,-554,4112,311,100615
12:18:30.99,17188,-959.9609375,246.09375,-41.015625,0.1075122819228507,-0.04153883619746505,0.04398229715025711,-2218,-421,-554,4112,311,100615
12:18:30.120,17189,-961.9140625,233.3984375,-48.828125,0.13194689145077132,-0.03054326190990077,0.02809980095710871,-2224,-420,-550,4112,311,100615
12:18:30.140,17190,-963.8671875,228.515625,-49.8046875,0.13683381335635544,-0.01710422666954443,0.008552113334772215,-2221,-422,-552,4112,311,100615
12:18:30.181,17191,-960.9375,214.84375,-48.828125,0.10262536001726659,-0.0012217304763960308,0.003665191429188092,-2223,-419,-551,4112,311,100615
12:18:30.192,17192,-956.0546875,217.7734375,-49.8046875,0.08552113334772216,0.006108652381980153,-0.013439035240356337,-2223,-420,-557,4112,311,100615
12:18:30.212,17193,-956.0546875,215.8203125,-47.8515625,0.05742133239061345,0.01710422666954443,-0.020769418098732523,-2224,-419,-550,4112,311,100615
12:18:30.233,17194,-958.0078125,225.5859375,-41.9921875,0.052534410485029326,0.01710422666954443,-0.04398229715025711,-2219,-423,-549,4112,311,100615
12:18:30.253,17195,-951.171875,237.3046875,-39.0625,0.051312680008633295,0.024434609527920613,-0.05009094953223726,-2207,-420,-559,4112,311,100615
12:18:30.263,17196,-953.125,242.1875,-29.296875,0.05742133239061345,0.023212879051524585,-0.051312680008633295,-2225,-421,-553,4112,311,100615
12:18:30.284,17197,-953.125,241.2109375,-26.3671875,0.039095375244672985,0.025656340004316647,-0.029321531433504737,-2219,-427,-560,4112,311,100615
12:18:30.324,17198,-958.0078125,234.375,-24.4140625,0.0,0.039095375244672985,-0.023212879051524585,-2227,-418,-554,4112,311,100615
12:18:30.344,17199,-953.125,236.328125,-28.3203125,-0.04031710572106901,0.04153883619746505,-0.0158824961931484,-2220,-423,-550,4112,311,100615
12:18:30.355,17200,-954.1015625,248.046875,-26.3671875,-0.02809980095710871,0.04031710572106901,-0.010995574287564277,-2221,-426,-550,4112,311,100615
12:18:30.375,17201,-951.171875,250.0,-26.3671875,0.009773843811168246,0.03420845333908886,-0.007330382858376184,-2222,-420,-549,4112,311,100615
12:18:30.395,17202,-946.2890625,245.1171875,-23.4375,0.03420845333908886,0.023212879051524585,-0.010995574287564277,-2217,-423,-554,4112,311,100610
12:18:30.416,17203,-952.1484375,243.1640625,-25.390625,0.03665191429188092,0.025656340004316647,-0.014660765716752368,-2226,-427,-562,4112,311,100610
12:18:30.436,17204,-955.078125,245.1171875,-26.3671875,0.020769418098732523,0.023212879051524585,-0.0024434609527920616,-2223,-423,-544,4112,311,100610
12:18:30.446,17205,-948.2421875,242.1875,-27.34375,0.009773843811168246,0.019547687622336492,0.0,-2212,-424,-547,4112,311,100610
12:18:30.467,17206,-944.3359375,237.3046875,-37.109375,-0.006108652381980153,0.0317649923862968,0.0024434609527920616,-2226,-423,-547,4112,311,100610
12:18:30.487,17207,-950.1953125,238.28125,-30.2734375,-0.013439035240356337,0.03054326190990077,0.0,-2222,-424,-535,4112,311,100610
12:18:30.508,17208,-953.125,237.3046875,-37.109375,-0.013439035240356337,0.03054326190990077,-0.0024434609527920616,-2221,-426,-547,4112,311,100610
12:18:30.518,17209,-952.1484375,242.1875,-33.203125,0.0024434609527920616,0.03054326190990077,0.006108652381980153,-2206,-417,-554,4112,311,100610
12:18:30.538,17210,-951.171875,239.2578125,-34.1796875,0.008552113334772215,0.019547687622336492,0.0158824961931484,-2204,-417,-558,4112,311,100610
12:18:30.559,17211,-952.1484375,237.3046875,-34.1796875,0.014660765716752368,0.024434609527920613,0.0012217304763960308,-2224,-423,-555,4112,311,100610
12:18:30.599,17212,-949.21875,237.3046875,-35.15625,0.04031710572106901,0.0158824961931484,0.003665191429188092,-2222,-429,-549,4112,311,100610
12:18:30.610,17213,-953.125,233.3984375,-26.3671875,0.02809980095710871,0.013439035240356337,0.004886921905584123,-2220,-423,-560,4112,311,100610
12:18:30.630,17214,-950.1953125,221.6796875,-31.25,0.012217304763960306,0.019547687622336492,0.010995574287564277,-2221,-420,-561,4112,311,100610
12:18:30.650,17215,-951.171875,219.7265625,-32.2265625,-0.009773843811168246,0.012217304763960306,0.006108652381980153,-2223,-421,-554,4112,311,100610
12:18:30.671,17216,-946.2890625,222.65625,-29.296875,-0.0024434609527920616,0.0158824961931484,-0.024434609527920613,-2211,-414,-549,4112,311,100610
12:18:30.691,17217,-954.1015625,229.4921875,-32.2265625,0.019547687622336492,0.009773843811168246,-0.05375614096142535,-2226,-422,-542,4112,311,100610
12:18:30.701,17218,-952.1484375,231.4453125,-29.296875,0.03420845333908886,0.004886921905584123,-0.04031710572106901,-2225,-417,-560,4112,311,100610
12:18:30.742,17219,-953.125,233.3984375,-32.2265625,0.039095375244672985,0.0012217304763960308,-0.03665191429188092,-2224,-427,-552,4112,311,100610
12:18:30.763,17220,-953.125,223.6328125,-32.2265625,0.006108652381980153,-0.0024434609527920616,-0.019547687622336492,-2229,-423,-558,4112,311,100610
12:18:30.773,17221,-949.21875,223.6328125,-34.1796875,-0.014660765716752368,0.004886921905584123,-0.023212879051524585,-2231,-422,-554,4112,311,100610
12:18:30.793,17222,-950.1953125,233.3984375,-39.0625,0.006108652381980153,0.004886921905584123,-0.03420845333908886,-2228,-425,-558,4112,311,100610
12:18:30.813,17223,-948.2421875,242.1875,-41.015625,0.025656340004316647,0.006108652381980153,-0.03665191429188092,-2223,-421,-549,4112,311,100610
12:18:30.833,17224,-952.1484375,246.09375,-37.109375,0.04031710572106901,0.004886921905584123,-0.029321531433504737,-2226,-421,-558,4112,311,100610
12:18:30.854,17225,-949.21875,243.1640625,-33.203125,0.052534410485029326,0.007330382858376184,-0.020769418098732523,-2226,-427,-558,4112,311,100610
12:18:30.864,17226,-947.265625,241.2109375,-36.1328125,0.06963863715457375,0.0012217304763960308,-0.023212879051524585,-2226,-420,-561,4112,311,100610
12:18:30.884,17227,-954.1015625,247.0703125,-30.2734375,0.10262536001726659,-0.014660765716752368,-0.029321531433504737,-2227,-422,-556,4112,311,100610
12:18:30.904,17228,-963.8671875,237.3046875,-26.3671875,0.1343903524035634,-0.013439035240356337,-0.04398229715025711,-2221,-426,-568,4112,311,100610
12:18:30.925,17229,-961.9140625,221.6796875,-32.2265625,0.051312680008633295,-0.009773843811168246,-0.02809980095710871,-2227,-421,-557,4112,311,100610
12:18:30.945,17230,-955.078125,225.5859375,-30.2734375,0.020769418098732523,-0.013439035240356337,-0.012217304763960306,-2221,-422,-542,4112,311,100610
12:18:30.955,17231,-951.171875,228.515625,-32.2265625,0.023212879051524585,-0.006108652381980153,-0.0012217304763960308,-2226,-421,-571,4112,311,100610
12:18:30.976,17232,-957.03125,226.5625,-33.203125,0.01832595714594046,-0.007330382858376184,-0.0012217304763960308,-2222,-426,-567,4112,311,100610
12:18:31.17,17233,-945.3125,220.703125,-33.203125,0.007330382858376184,-0.007330382858376184,0.0,-2221,-420,-563,4112,311,100610
12:18:31.27,17234,-942.3828125,220.703125,-30.2734375,0.003665191429188092,-0.007330382858376184,-0.01710422666954443,-2225,-424,-550,4112,311,100610
12:18:31.47,17235,-942.3828125,225.5859375,-33.203125,-0.007330382858376184,-0.006108652381980153,-0.02809980095710871,-2224,-422,-559,4112,311,100610
12:18:31.68,17236,-940.4296875,224.609375,-28.3203125,-0.020769418098732523,0.0,-0.014660765716752368,-2224,-425,-556,4112,311,100610
12:18:31.88,17237,-944.3359375,228.515625,-34.1796875,-0.01832595714594046,-0.0012217304763960308,-0.003665191429188092,-2211,-417,-555,4112,311,100610
12:18:31.108,17238,-950.1953125,223.6328125,-31.25,-0.019547687622336492,-0.0024434609527920616,-0.010995574287564277,-2219,-426,-561,4112,311,100610
12:18:31.118,17239,-955.078125,226.5625,-28.3203125,-0.008552113334772215,-0.0024434609527920616,-0.021991148575128554,-2220,-423,-561,4112,311,100610
12:18:31.159,17240,-956.0546875,234.375,-32.2265625,0.025656340004316647,-0.009773843811168246,-0.02809980095710871,-2224,-425,-569,4112,311,100610
12:18:31.180,17241,-962.890625,234.375,-28.3203125,0.025656340004316647,-0.009773843811168246,-0.01710422666954443,-2224,-421,-569,4112,311,100610
12:18:31.200,17242,-960.9375,225.5859375,-24.4140625,0.004886921905584123,-0.014660765716752368,-0.020769418098732523,-2220,-427,-565,4112,311,100610
12:18:31.211,17243,-958.0078125,228.515625,-36.1328125,0.01832595714594046,-0.020769418098732523,-0.03298672286269283,-2222,-425,-568,4112,311,100610
12:18:31.231,17244,-955.078125,236.328125,-37.109375,0.04398229715025711,-0.01710422666954443,-0.048869219055841226,-2206,-420,-571,4112,311,100610
12:18:31.252,17245,-947.265625,241.2109375,-40.0390625,0.0635299847725936,-0.026878070480712675,-0.05742133239061345,-2221,-429,-552,4112,311,100610
12:18:31.272,17246,-948.2421875,239.2578125,-40.0390625,0.0635299847725936,-0.023212879051524585,-0.05619960191421742,-2218,-426,-564,4112,311,100610
12:18:31.282,17247,-952.1484375,241.2109375,-44.921875,0.0476474885794452,-0.020769418098732523,-0.05009094953223726,-2227,-425,-549,4112,311,100610
12:18:31.303,17248,-958.0078125,242.1875,-44.921875,0.029321531433504737,-0.012217304763960306,-0.0476474885794452,-2221,-424,-559,4112,311,100610
12:18:31.323,17249,-956.0546875,242.1875,-44.921875,0.03543018381548489,0.0,-0.03665191429188092,-2221,-429,-557,4112,311,100610
12:18:31.344,17250,-956.0546875,248.046875,-41.015625,0.05009094953223726,0.006108652381980153,-0.04398229715025711,-2219,-428,-552,4112,311,100610
12:18:31.364,17251,-958.984375,242.1875,-41.9921875,0.03665191429188092,0.009773843811168246,-0.01832595714594046,-2215,-427,-568,4112,311,100610
12:18:31.374,17252,-960.9375,239.2578125,-41.015625,0.03420845333908886,0.01710422666954443,-0.021991148575128554,-2220,-424,-565,4112,311,100611
12:18:31.395,17253,-965.8203125,244.140625,-38.0859375,0.03420845333908886,0.019547687622336492,0.004886921905584123,-2220,-430,-557,4112,311,100611
12:18:31.436,17254,-955.078125,237.3046875,-32.2265625,0.06597344572538566,0.008552113334772215,0.008552113334772215,-2222,-423,-562,4112,311,100611
12:18:31.456,17255,-959.9609375,224.609375,-26.3671875,0.051312680008633295,0.014660765716752368,0.008552113334772215,-2218,-422,-549,4112,311,100611
12:18:31.466,17256,-953.125,213.8671875,-33.203125,0.04153883619746505,0.008552113334772215,-0.006108652381980153,-2221,-426,-544,4112,311,100611
12:18:31.487,17257,-945.3125,209.9609375,-27.34375,0.03787364476827696,0.013439035240356337,0.0,-2225,-423,-558,4112,311,100611
12:18:31.507,17258,-948.2421875,208.0078125,-22.4609375,0.020769418098732523,0.024434609527920613,0.007330382858376184,-2215,-423,-558,4112,311,100611
12:18:31.528,17259,-949.21875,201.171875,-24.4140625,0.004886921905584123,0.01832595714594046,-0.004886921905584123,-2221,-423,-563,4112,311,100611
12:18:31.538,17260,-951.171875,196.2890625,-22.4609375,-0.0158824961931484,0.021991148575128554,-0.006108652381980153,-2222,-429,-562,4112,311,100611
12:18:31.579,17261,-957.03125,203.125,-20.5078125,-0.04276056667386108,0.020769418098732523,-0.020769418098732523,-2225,-427,-550,4112,311,100611
12:18:31.599,17262,-956.0546875,208.984375,-22.4609375,-0.05009094953223726,0.008552113334772215,-0.03665191429188092,-2220,-427,-560,4112,311,100611
12:18:31.619,17263,-953.125,203.125,-21.484375,-0.03787364476827696,0.01832595714594046,-0.04276056667386108,-2222,-422,-548,4112,311,100611
12:18:31.629,17264,-953.125,197.265625,-23.4375,-0.04642575810304917,0.013439035240356337,-0.05497787143782139,-2220,-427,-565,4112,311,100611
12:18:31.650,17265,-950.1953125,184.5703125,-23.4375,-0.1075122819228507,0.021991148575128554,-0.058643062867009474,-2214,-425,-567,4112,311,100611
12:18:31.670,17266,-948.2421875,186.5234375,-19.53125,-0.2101376419401173,0.04642575810304917,-0.05986479334340551,-2220,-430,-561,4112,311,100611
12:18:31.690,17267,-953.125,209.9609375,-16.6015625,-0.3005456971934236,0.0635299847725936,-0.0671951762017817,-2223,-426,-566,4112,311,100611
12:18:31.722,17268,-950.1953125,232.421875,-17.578125,-0.29810223624063154,0.06108652381980154,-0.07330382858376185,-2220,-429,-564,4112,311,100611
12:18:31.742,17269,-948.2421875,242.1875,-17.578125,-0.2028072590817411,0.03543018381548489,-0.07452555906015788,-2223,-429,-557,4112,311,100611
12:18:31.762,17270,-951.171875,236.328125,-17.578125,-0.03298672286269283,-0.006108652381980153,-0.058643062867009474,-2221,-429,-551,4112,311,100611
12:18:31.783,17271,-953.125,223.6328125,-20.5078125,0.01832595714594046,-0.02809980095710871,-0.0635299847725936,-2218,-427,-553,4112,311,100611
12:18:31.793,17272,-956.0546875,221.6796875,-23.4375,0.023212879051524585,-0.0317649923862968,-0.05619960191421742,-2208,-428,-568,4112,311,100611
12:18:31.813,17273,-956.0546875,210.9375,-23.4375,-0.014660765716752368,-0.020769418098732523,-0.058643062867009474,-2203,-423,-562,4112,311,100611
12:18:31.833,17274,-959.9609375,219.7265625,-21.484375,-0.07208209810736582,-0.0012217304763960308,-0.05986479334340551,-2223,-432,-562,4112,311,100611
12:18:31.854,17275,-954.1015625,228.515625,-27.34375,-0.10506882097005865,0.008552113334772215,-0.058643062867009474,-2226,-430,-567,4112,311,100611
12:18:31.874,17276,-950.1953125,233.3984375,-32.2265625,-0.1233947781159991,0.0158824961931484,-0.04031710572106901,-2227,-434,-559,4112,311,100611
12:18:31.884,17277,-955.078125,233.3984375,-34.1796875,-0.12828170002158323,0.013439035240356337,-0.02809980095710871,-2221,-433,-568,4112,311,100611
12:18:31.905,17278,-963.8671875,233.3984375,-36.1328125,-0.12950343049797927,0.01832595714594046,0.003665191429188092,-2224,-432,-552,4112,311,100611
12:18:31.925,17279,-962.890625,227.5390625,-28.3203125,-0.15271630954950383,0.029321531433504737,0.006108652381980153,-2208,-425,-562,4112,311,100611
12:18:31.946,17280,-959.9609375,225.5859375,-23.4375,-0.13805554383275148,0.03420845333908886,0.020769418098732523,-2226,-430,-567,4112,311,100611
12:18:31.956,17281,-954.1015625,217.7734375,-24.4140625,-0.09407324668249437,0.0317649923862968,0.019547687622336492,-2221,-433,-568,4112,311,100611
12:18:31.997,17282,-957.03125,214.84375,-30.2734375,-0.07086036763096978,0.02809980095710871,0.012217304763960306,-2216,-426,-573,4112,311,100611
12:18:32.18,17283,-958.984375,211.9140625,-29.296875,-0.04520402762665313,0.025656340004316647,-0.004886921905584123,-2218,-433,-558,4112,311,100611
12:18:32.38,17284,-964.84375,207.03125,-26.3671875,-0.048869219055841226,0.025656340004316647,-0.0012217304763960308,-2226,-436,-560,4112,311,100611
12:18:32.49,17285,-958.0078125,209.9609375,-23.4375,-0.06475171524898964,0.03420845333908886,0.007330382858376184,-2227,-436,-561,4112,311,100611
12:18:32.69,17286,-966.796875,218.75,-24.4140625,-0.06108652381980154,0.03543018381548489,0.007330382858376184,-2209,-428,-553,4112,311,100611
12:18:32.90,17287,-963.8671875,210.9375,-25.390625,-0.05497787143782139,0.03054326190990077,-0.0024434609527920616,-2221,-433,-564,4112,311,100611
12:18:32.110,17288,-958.0078125,221.6796875,-26.3671875,-0.051312680008633295,0.01832595714594046,-0.003665191429188092,-2226,-434,-574,4112,311,100611
12:18:32.140,17289,-956.0546875,224.609375,-29.296875,-0.0158824961931484,0.0158824961931484,-0.010995574287564277,-2222,-432,-562,4112,311,100611
12:18:32.161,17290,-958.0078125,213.8671875,-23.4375,0.009773843811168246,0.009773843811168246,-0.004886921905584123,-2226,-437,-562,4112,311,100611
12:18:32.182,17291,-965.8203125,216.796875,-27.34375,-0.009773843811168246,0.019547687622336492,-0.009773843811168246,-2224,-434,-565,4112,311,100611
12:18:32.202,17292,-961.9140625,216.796875,-28.3203125,-0.03665191429188092,0.024434609527920613,-0.014660765716752368,-2223,-438,-579,4112,311,100611
12:18:32.212,17293,-958.984375,222.65625,-26.3671875,-0.02809980095710871,0.021991148575128554,-0.01710422666954443,-2213,-430,-560,4112,311,100611
12:18:32.233,17294,-951.171875,232.421875,-33.203125,-0.008552113334772215,0.014660765716752368,-0.0317649923862968,-2230,-439,-563,4112,311,100611
12:18:32.253,17295,-945.3125,231.4453125,-37.109375,0.05742133239061345,0.012217304763960306,-0.03420845333908886,-2226,-438,-566,4112,311,100611
12:18:32.274,17296,-944.3359375,211.9140625,-41.9921875,0.04520402762665313,0.021991148575128554,-0.01832595714594046,-2223,-436,-561,4112,311,100611
12:18:32.284,17297,-952.1484375,208.984375,-47.8515625,-0.01710422666954443,0.04520402762665313,-0.021991148575128554,-2227,-436,-570,4112,311,100611
12:18:32.304,17298,-967.7734375,209.9609375,-48.828125,-0.09407324668249437,0.07941248096574201,-0.026878070480712675,-2223,-434,-562,4112,311,100611
12:18:32.324,17299,-976.5625,203.125,-46.875,-0.20525072003453318,0.13194689145077132,-0.007330382858376184,-2224,-437,-568,4112,311,100611
12:18:32.344,17300,-971.6796875,209.9609375,-45.8984375,-0.37629298672997746,0.17959438003021652,0.03298672286269283,-2218,-434,-568,4112,311,100611
12:18:32.365,17301,-966.796875,241.2109375,-52.734375,-0.5045746867515608,0.20647245051092922,0.07819075048934597,-2228,-442,-550,4112,311,100611
12:18:32.375,17302,-970.703125,281.25,-66.40625,-0.5742133239061344,0.2150245638457014,0.14416419621473164,-2225,-446,-555,4112,311,100607
12:18:32.416,17303,-989.2578125,330.078125,-67.3828125,-0.5314527572322734,0.2150245638457014,0.2736676267127109,-2228,-441,-552,4112,311,100607
12:18:32.437,17304,-992.1875,389.6484375,-76.171875,-0.41050144006906636,0.2162462943220974,0.39828413530510604,-2226,-438,-552,4112,311,100607
12:18:32.457,17305,-996.09375,428.7109375,-76.171875,-0.2651155133779387,0.20525072003453318,0.592539281052075,-2228,-432,-551,4112,311,100607
12:18:32.468,17306,-1021.484375,495.1171875,-83.0078125,-0.07086036763096978,0.17837264955382048,0.7843509658462519,-2222,-429,-552,4112,311,100607
12:18:32.488,17307,-1041.015625,569.3359375,-66.40625,0.15271630954950383,0.15271630954950383,1.0091493735031216,-2219,-416,-544,4112,311,100607
12:18:32.509,17308,-1065.4296875,647.4609375,-59.5703125,0.4410447019789671,0.1392772743091475,1.2498302773531396,-2225,-415,-554,4112,311,100607
12:18:32.529,17309,-1070.3125,675.78125,-61.5234375,0.8539896030008255,0.11239920382843484,1.5247196345422465,-2227,-399,-548,4112,311,100607
12:18:32.560,17310,-1086.9140625,722.65625,-46.875,1.315803723078525,0.10506882097005865,1.786169956490997,-2215,-377,-539,4112,311,100607
12:18:32.581,17311,-1093.75,778.3203125,-49.8046875,1.7263051631475914,0.1111774733520388,2.0830504622552324,-2215,-370,-530,4112,311,100607
12:18:32.602,17312,-1094.7265625,818.359375,-69.3359375,1.9828685631907579,0.11972958668681102,2.5350907385217636,-2212,-337,-530,4112,311,100607
12:18:32.612,17313,-1094.7265625,873.046875,-80.078125,2.1209241070235096,0.14538592669112765,2.806314904281683,-2201,-304,-519,4112,311,100607
12:18:32.632,17314,-1088.8671875,911.1328125,-112.3046875,2.279749068954993,0.1869247628885927,3.0824259919471855,-2187,-287,-516,4112,311,100607
12:18:32.653,17315,-1049.8046875,951.171875,-162.109375,2.502104015659071,0.2419026343264141,3.353650157707104,-2183,-255,-508,4112,311,100607
12:18:32.673,17316,-996.09375,1027.34375,-186.5234375,2.7611108766550294,0.29810223624063154,3.589444139651538,-2168,-218,-489,4112,311,100607
12:18:32.694,17317,-928.7109375,1125.9765625,-220.703125,3.130073480526631,0.42638393626221477,3.7873644768276953,-2154,-197,-483,4112,311,100607
12:18:32.704,17318,-890.625,1159.1796875,-298.828125,3.6468654720421516,0.5057964172279568,3.8875463758921693,-2129,-160,-461,4112,311,100607
12:18:32.724,17319,-870.1171875,1072.265625,-436.5234375,4.157548811175693,0.6401867696315202,4.0378192244888815,-2095,-129,-436,4112,311,100607
12:18:32.745,17320,-764.6484375,981.4453125,-521.484375,4.652349654116085,1.0323622525546459,4.307821659772404,-2074,-120,-411,4112,311,100607
12:18:32.765,17321,-681.640625,955.078125,-534.1796875,4.609589087442224,1.2767083478338521,4.360356070257433,-2029,-89,-354,4112,311,100607
12:18:32.785,17322,-599.609375,873.046875,-600.5859375,4.494746422660997,1.5442673221645826,4.302934737866821,-2003,-84,-326,4112,311,100607
12:18:32.795,17323,-536.1328125,842.7734375,-703.125,4.433659898841196,1.8167132184008978,4.22596571785387,-1983,-82,-292,4112,311,100607
12:18:32.836,17324,-498.046875,839.84375,-762.6953125,4.4593162388455125,2.0439550870105596,4.185648612132801,-1942,-78,-259,4112,311,100607
12:18:32.856,17325,-427.734375,756.8359375,-775.390625,4.274834936909712,2.2553144594270726,4.119675166407416,-1889,-85,-224,4112,311,100607
12:18:32.867,17326,-334.9609375,652.34375,-776.3671875,3.9107592549436947,2.417804612787745,4.028045380677713,-1862,-90,-208,4112,311,100607
12:18:32.887,17327,-244.140625,598.6328125,-750.0,3.536909729166509,2.526538625186992,3.9449677082827836,-1820,-98,-176,4112,311,100607
12:18:32.907,17328,-160.15625,567.3828125,-768.5546875,3.1960469262520164,2.590068609959585,3.7824775549221115,-1764,-115,-143,4112,311,100607
12:18:32.927,17329,-72.265625,540.0390625,-781.25,3.1862730824408483,2.539977660427348,3.634648167278192,-1723,-138,-131,4112,311,100607
12:18:32.948,17330,-8.7890625,497.0703125,-777.34375,3.2058207700631844,2.4886649804187146,3.483153588205084,-1704,-157,-127,4112,311,100607
12:18:32.978,17331,46.875,352.5390625,-735.3515625,3.0347785033677406,2.4226915346933287,3.3597588100890845,-1664,-191,-106,4112,311,100607
12:18:32.998,17332,108.3984375,272.4609375,-684.5703125,2.712241657599188,2.3225096356288546,3.208264231015977,-1627,-218,-102,4112,311,100607
12:18:33.19,17333,167.96875,256.8359375,-641.6015625,2.432465378504497,2.1966713965600633,3.0641000348012453,-1611,-233,-92,4112,311,100607
12:18:33.39,17334,219.7265625,264.6484375,-651.3671875,2.427578456598913,2.057394122250916,2.896722959534989,-1581,-259,-98,4112,311,100607
12:18:33.49,17335,261.71875,176.7578125,-674.8046875,2.547308043285724,1.933999344134917,2.6926939699768515,-1551,-292,-100,4112,311,100607
12:18:33.69,17336,287.109375,92.7734375,-635.7421875,2.53631246899816,1.8191566793536897,2.4226915346933287,-1541,-307,-101,4112,311,100607
12:18:33.90,17337,306.640625,0.9765625,-564.453125,2.1551325603625986,1.6627751783749978,2.2113321622768156,-1508,-331,-110,4112,311,100607
12:18:33.111,17338,348.6328125,-107.421875,-510.7421875,1.8118262964953138,1.5186109821602662,2.032959512722995,-1495,-360,-106,4112,311,100607
12:18:33.121,17339,377.9296875,-160.15625,-500.9765625,1.547932513593771,1.3756685164219307,1.880243203173491,-1495,-375,-108,4112,311,100607
12:18:33.141,17340,392.578125,-172.8515625,-507.8125,1.4330898488125443,1.232726050683595,1.7385224679115518,-1494,-405,-117,4112,311,100607
12:18:33.162,17341,402.34375,-213.8671875,-480.46875,1.341460063082842,1.0885618544688633,1.5784757755036718,-1473,-426,-119,4112,311,100607
12:18:33.183,17342,423.828125,-295.8984375,-448.2421875,1.154535300194249,0.9358455449193596,1.3976596649970594,-1465,-434,-117,4112,311,100607
12:18:33.203,17343,467.7734375,-380.859375,-424.8046875,0.8796459430051422,0.7709119306058954,1.2534954687823276,-1468,-451,-135,4112,311,100607
12:18:33.213,17344,500.9765625,-415.0390625,-435.546875,0.6365215782023321,0.6133086991508074,1.103222620185616,-1463,-457,-143,4112,311,100607
12:18:33.254,17345,539.0625,-432.6171875,-466.796875,0.4410447019789671,0.3481931857728688,0.834441915378489,-1462,-467,-121,4112,311,100607
12:18:33.275,17346,581.0546875,-449.21875,-509.765625,0.514348530562729,0.17226399717184035,0.6450736915371041,-1459,-478,-138,4112,311,100607
12:18:33.285,17347,619.140625,-500.0,-515.625,0.5461135229490258,-0.02809980095710871,0.4618141200776996,-1464,-484,-136,4112,311,100607
12:18:33.305,17348,626.953125,-562.5,-499.0234375,0.4434881629317592,-0.2309070600388498,0.28344147052387914,-1464,-490,-138,4112,311,100607
12:18:33.325,17349,625.9765625,-573.2421875,-523.4375,0.3445279943436807,-0.38606683054114566,0.07452555906015788,-1460,-485,-130,4112,311,100607
12:18:33.346,17350,610.3515625,-564.453125,-559.5703125,0.2651155133779387,-0.5338962181850655,-0.13316862192716736,-1473,-495,-140,4112,311,100607
12:18:33.366,17351,595.703125,-550.78125,-587.890625,0.13805554383275148,-0.6719517620178169,-0.2663372438543347,-1471,-495,-133,4112,311,100607
12:18:33.397,17352,587.890625,-543.9453125,-603.515625,-0.014660765716752368,-0.8222246106145287,-0.37629298672997746,-1481,-489,-128,4118,311,100603
12:18:33.417,17353,561.5234375,-554.6875,-611.328125,-0.14416419621473164,-1.0409143658894182,-0.5595525581893821,-1491,-487,-116,4118,311,100603
12:18:33.437,17354,531.25,-536.1328125,-613.28125,-0.13194689145077132,-1.1386528040011008,-0.6621779182066487,-1492,-487,-117,4118,311,100603
12:18:33.457,17355,476.5625,-469.7265625,-651.3671875,-0.007330382858376184,-1.2095131716320704,-0.7684684696531033,-1501,-485,-107,4118,311,100603
12:18:33.468,17356,443.359375,-464.84375,-674.8046875,0.05375614096142535,-1.2608258516407038,-0.8454374896660533,-1500,-478,-94,4118,311,100603
12:18:33.488,17357,436.5234375,-479.4921875,-682.6171875,0.0,-1.3194689145077132,-0.8943067087218944,-1516,-480,-98,4118,311,100603
12:18:33.509,17358,416.9921875,-488.28125,-692.3828125,-0.11606439525762292,-1.3622294811815745,-0.9627236154000722,-1529,-477,-94,4118,311,100603
12:18:33.539,17359,388.671875,-439.453125,-731.4453125,-0.15393804002589986,-1.4086552392846234,-1.0580185925589627,-1541,-470,-79,4118,311,100603
12:18:33.559,17360,348.6328125,-389.6484375,-775.390625,-0.10018189906447451,-1.445307153576504,-1.152091839241457,-1535,-460,-66,4118,311,100603
12:18:33.580,17361,288.0859375,-330.078125,-837.890625,-0.0989601685880785,-1.4831807983447813,-1.227839128778011,-1561,-458,-61,4118,311,100603
12:18:33.600,17362,237.3046875,-285.15625,-878.90625,-0.20891591146372127,-1.5601498183577314,-1.1985175973445061,-1573,-452,-56,4118,311,100603
12:18:33.621,17363,190.4296875,-275.390625,-893.5546875,-0.2577851305195625,-1.5760323145508797,-1.1716395268637936,-1589,-441,-49,4118,311,100603
12:18:33.631,17364,118.1640625,-254.8828125,-924.8046875,-0.22724186860966175,-1.5063936773963058,-1.0897835849452593,-1600,-440,-53,4118,311,100603
12:18:33.651,17365,48.828125,-186.5234375,-987.3046875,-0.051312680008633295,-1.4196508135721877,-0.9676105373056564,-1618,-433,-41,4118,311,100603
12:18:33.672,17366,-35.15625,-143.5546875,-1080.078125,0.1942551457469689,-1.2534954687823276,-0.8246680715673209,-1621,-428,-42,4118,311,100603
12:18:33.692,17367,-87.890625,-160.15625,-1089.84375,0.3445279943436807,-1.0262536001726659,-0.6499606134426883,-1634,-433,-35,4118,311,100603
12:18:33.713,17368,-112.3046875,-190.4296875,-1089.84375,0.3274237676741363,-0.7354817467904105,-0.47403142484165994,-1646,-436,-42,4118,311,100603
12:18:33.723,17369,-139.6484375,-223.6328125,-1093.75,0.22724186860966175,-0.4312708581677988,-0.2748893571891069,-1648,-439,-31,4118,311,100603
12:18:33.743,17370,-157.2265625,-223.6328125,-1065.4296875,0.04031710572106901,0.09773843811168245,0.03787364476827696,-1642,-434,-31,4118,311,100603
12:18:33.764,17371,-128.90625,-219.7265625,-1020.5078125,0.03787364476827696,0.39828413530510604,0.238237442897226,-1645,-438,-36,4118,311,100603
12:18:33.784,17372,-98.6328125,-209.9609375,-989.2578125,0.09162978572970232,0.6352998477259361,0.3885102914939378,-1643,-440,-44,4118,311,100603
12:18:33.815,17373,-82.03125,-211.9140625,-962.890625,0.1356120828799594,0.8295549934729048,0.5277875658030853,-1632,-441,-37,4118,311,100603
12:18:33.835,17374,-67.3828125,-211.9140625,-937.5,0.15271630954950383,0.9773843811168247,0.6829473363053812,-1627,-446,-32,4118,311,100603
12:18:33.855,17375,-56.640625,-216.796875,-912.109375,0.19181168479417682,1.067792436370131,0.8075638448977764,-1615,-449,-41,4118,311,100603
12:18:33.876,17376,-82.03125,-234.375,-892.578125,0.2138028333693054,1.1679743354346053,0.9358455449193596,-1604,-453,-54,4118,311,100603
12:18:33.886,17377,-75.1953125,-242.1875,-835.9375,0.17959438003021652,1.3133602621257332,1.0152580258851016,-1591,-456,-64,4118,311,100603
12:18:33.906,17378,35.15625,-241.2109375,-835.9375,0.1148426647812269,1.4477506145292964,1.0140362954087057,-1579,-463,-49,4118,311,100603
12:18:33.927,17379,107.421875,-257.8125,-864.2578125,0.21258110289290938,1.4807373373919894,1.0018189906447452,-1579,-460,-59,4118,311,100603
12:18:33.967,17380,167.96875,-300.78125,-862.3046875,0.3738495257771854,1.4697417631044252,0.9896016858807848,-1560,-466,-78,4118,311,100603
12:18:33.978,17381,261.71875,-395.5078125,-813.4765625,0.39706240482871,1.4465288840529003,0.9480628496833199,-1549,-481,-85,4118,311,100603
12:18:33.998,17382,441.40625,-511.71875,-728.515625,0.2309070600388498,1.3842206297567028,0.8417722982368653,-1544,-478,-93,4118,311,100603
12:18:34.19,17383,622.0703125,-543.9453125,-704.1015625,0.11850785621041499,1.27426488688106,0.6499606134426883,-1534,-487,-91,4118,311,100603
12:18:34.39,17384,722.65625,-572.265625,-704.1015625,0.15760323145508798,1.121548577331556,0.46670104198328377,-1514,-487,-98,4118,311,100603
12:18:34.50,17385,853.515625,-596.6796875,-704.1015625,0.23579398194443396,0.9431759277777358,0.3078760800517997,-1521,-489,-95,4118,311,100603
12:18:34.70,17386,971.6796875,-634.765625,-700.1953125,0.18325957145940464,0.675616953447005,0.07208209810736582,-1517,-491,-107,4118,311,100603
12:18:34.91,17387,989.2578125,-632.8125,-700.1953125,0.10873401239924674,0.5253441048502933,-0.03787364476827696,-1510,-493,-108,4118,311,100603
12:18:34.111,17388,929.6875,-632.8125,-681.640625,0.09285151620609834,0.3897320219703338,-0.11606439525762292,-1496,-486,-104,4118,311,100603
12:18:34.132,17389,851.5625,-615.234375,-666.015625,0.18570303241219668,0.29932396671702755,-0.1466076571675237,-1507,-494,-121,4118,311,100603
12:18:34.162,17390,791.9921875,-581.0546875,-667.96875,0.3042108886226117,0.2419026343264141,-0.15638150097869194,-1502,-496,-115,4118,311,100603
12:18:34.234,17391,710.9375,-561.5234375,-651.3671875,0.3420845333908886,0.19303341527057283,-0.15638150097869194,-1496,-496,-112,4118,311,100603
12:18:34.254,17392,626.953125,-550.78125,-629.8828125,0.31764992386296803,0.16493361431346415,-0.1734857276482364,-1497,-496,-118,4118,311,100603
12:18:34.274,17393,550.78125,-517.578125,-613.28125,0.2846632010002752,0.12583823906879116,-0.22846359908605776,-1499,-497,-111,4118,311,100603
12:18:34.295,17394,507.8125,-474.609375,-637.6953125,0.2932153143350474,0.11850785621041499,-0.3029891581462157,-1495,-499,-118,4118,311,100603
12:18:34.305,17395,464.84375,-458.0078125,-690.4296875,0.2858849314766712,0.0830776723949301,-0.3738495257771854,-1490,-497,-113,4118,311,100603
12:18:34.325,17396,423.828125,-452.1484375,-711.9140625,0.2871066619530672,0.06475171524898964,-0.39217548292312593,-1487,-496,-122,4118,311,100603
12:18:34.346,17397,394.53125,-460.9375,-708.0078125,0.2712241657599188,0.06841690667817772,-0.41783182292744253,-1485,-495,-122,4118,311,100603
12:18:34.367,17398,383.7890625,-488.28125,-686.5234375,0.22846359908605776,0.09407324668249437,-0.4654793115068877,-1467,-489,-120,4118,311,100603
12:18:34.387,17399,397.4609375,-514.6484375,-691.40625,0.1551597705022959,0.11239920382843484,-0.594982742004867,-1488,-494,-113,4118,311,100603
12:18:34.397,17400,395.5078125,-527.34375,-708.984375,0.1478293876439197,0.16371188383706814,-0.7757988525114795,-1484,-491,-122,4118,311,100603
12:18:34.418,17401,411.1328125,-477.5390625,-720.703125,0.1710422666954443,0.278554548618295,-0.9199630487262113,-1474,-488,-129,4118,311,100603
12:18:34.459,17402,459.9609375,-475.5859375,-749.0234375,0.26267205242514663,0.3469714552964728,-1.0482447487477944,-1481,-485,-126,4118,311,100602
12:18:34.469,17403,472.65625,-509.765625,-750.9765625,0.24068090385001806,0.395840674352314,-1.1447614563830808,-1472,-476,-133,4118,311,100602
12:18:34.490,17404,502.9296875,-514.6484375,-718.75,0.3481931857728688,0.4043927876870862,-1.2070697106792785,-1467,-474,-137,4118,311,100602
12:18:34.510,17405,586.9140625,-526.3671875,-691.40625,0.5180137219919171,0.3824016391119576,-1.312138531649337,-1458,-461,-130,4118,311,100602
12:18:34.531,17406,667.96875,-539.0625,-664.0625,0.6035348553396392,0.3274237676741363,-1.4123204307138115,-1464,-459,-136,4118,311,100602
12:18:34.541,17407,717.7734375,-541.015625,-646.484375,0.6401867696315202,0.278554548618295,-1.4905111812031575,-1465,-460,-141,4118,311,100602
12:18:34.561,17408,775.390625,-533.203125,-615.234375,0.6414085001079162,0.2162462943220974,-1.5711453926452956,-1458,-456,-152,4118,311,100602
12:18:34.582,17409,833.984375,-512.6953125,-575.1953125,0.6194173515327875,0.13194689145077132,-1.6310101859887012,-1453,-445,-153,4118,311,100602
12:18:34.602,17410,888.671875,-500.0,-496.09375,0.5839871677173026,0.05375614096142535,-1.6542230650402259,-1455,-440,-147,4118,311,100602
12:18:34.622,17411,951.171875,-487.3046875,-440.4296875,0.5619960191421741,-0.12095131716320705,-1.6859880574265225,-1450,-441,-152,4118,311,100602
12:18:34.632,17412,1006.8359375,-437.5,-424.8046875,0.5876523591464908,-0.24923301718479027,-1.6847663269501267,-1444,-425,-152,4118,311,100602
12:18:34.653,17413,1039.0625,-399.4140625,-432.6171875,0.5705481324769464,-0.38484510006474965,-1.6994270926668789,-1449,-426,-140,4118,311,100602
12:18:34.673,17414,1051.7578125,-376.953125,-413.0859375,0.4324925886441948,-0.49846603436958054,-1.6994270926668789,-1461,-417,-128,4118,311,100602
12:18:34.693,17415,1049.8046875,-359.375,-388.671875,0.2577851305195625,-0.5962044724812631,-1.6542230650402259,-1459,-408,-135,4118,311,100602
12:18:34.714,17416,1028.3203125,-296.875,-400.390625,0.1661553447898602,-0.6841690667817772,-1.58824961931484,-1464,-402,-127,4118,311,100602
12:18:34.724,17417,1005.859375,-222.65625,-485.3515625,0.1893682238413848,-0.7855726963226478,-1.5173892516838703,-1468,-398,-127,4118,311,100602
12:18:34.744,17418,987.3046875,-163.0859375,-548.828125,0.2932153143350474,-0.874759021099558,-1.4245377354777717,-1477,-386,-120,4118,311,100602
12:18:34.765,17419,981.4453125,-171.875,-549.8046875,0.37018433434799736,-0.9639453458764682,-1.3707815945163466,-1474,-381,-116,4118,311,100602
12:18:34.785,17420,942.3828125,-230.46875,-543.9453125,0.3335324200561164,-1.10200088970922,-1.3744467859455347,-1492,-379,-102,4118,311,100602
12:18:34.795,17421,861.328125,-218.75,-581.0546875,0.1551597705022959,-1.1496483782886648,-1.34512525451203,-1508,-377,-99,4118,311,100602
12:18:34.815,17422,800.78125,-115.234375,-658.203125,0.05497787143782139,-1.1630874135290212,-1.3280210278424853,-1511,-369,-86,4118,311,100602
12:18:34.836,17423,794.921875,-68.359375,-698.2421875,0.10873401239924674,-1.1826351011513576,-1.350012176417614,-1527,-371,-84,4118,311,100602
12:18:34.856,17424,796.875,-75.1953125,-676.7578125,0.22724186860966175,-1.2266173983016149,-1.393994473567871,-1538,-364,-79,4118,311,100602
12:18:34.877,17425,751.953125,-108.3984375,-652.34375,0.22846359908605776,-1.2864821916450204,-1.4343115792889403,-1543,-363,-84,4118,311,100602
12:18:34.887,17426,714.84375,-95.703125,-630.859375,0.08063421144213802,-1.3439035240356338,-1.4746286850100092,-1544,-350,-64,4118,311,100602
12:18:34.908,17427,709.9609375,4.8828125,-705.078125,-0.08429940287132612,-1.4098769697610194,-1.547932513593771,-1575,-348,-72,4118,311,100602
12:18:34.928,17428,646.484375,125.0,-846.6796875,0.10506882097005865,-1.591914810744028,-1.6982053621904827,-1590,-340,-53,4118,311,100602
12:18:34.949,17429,557.6171875,126.953125,-916.015625,0.2687807048071268,-1.6774359440917503,-1.7214182412420074,-1608,-342,-55,4118,311,100602
12:18:34.959,17430,481.4453125,-3.90625,-853.515625,0.05986479334340551,-1.7617353469630763,-1.7018705536196708,-1632,-340,-42,4118,311,100602
12:18:34.979,17431,364.2578125,-87.890625,-800.78125,-0.2932153143350474,-1.740965928864344,-1.6468926821818495,-1650,-335,-37,4118,311,100602
12:18:35.0,17432,179.6875,27.34375,-913.0859375,-0.45204027626653137,-1.6358971078942852,-1.5662584707397116,-1658,-328,-26,4118,311,100602
12:18:35.20,17433,44.921875,217.7734375,-1027.34375,-0.23335052099164189,-1.4746286850100092,-1.4208725440485839,-1667,-318,-32,4118,311,100602
12:18:35.40,17434,-13.671875,228.515625,-1074.21875,0.12828170002158323,-1.2620475821170998,-1.1875220230569419,-1695,-323,-37,4118,311,100602
12:18:35.51,17435,-62.5,151.3671875,-1056.640625,0.2345722514680379,-0.9175195877734192,-0.8038986534685881,-1702,-324,-29,4118,311,100602
12:18:35.71,17436,-82.03125,148.4375,-1037.109375,0.2076941809873252,-0.278554548618295,-0.1551597705022959,-1710,-328,-30,4118,311,100602
12:18:35.91,17437,-82.03125,171.875,-1029.296875,0.2748893571891069,0.14538592669112765,0.2419026343264141,-1706,-328,-34,4118,311,100602
12:18:35.111,17438,-46.875,163.0859375,-995.1171875,0.38484510006474965,0.48869219055841234,0.5876523591464908,-1704,-327,-22,4118,311,100602
12:18:35.132,17439,0.9765625,112.3046875,-936.5234375,0.3738495257771854,0.748920782030767,0.8491026810952413,-1693,-329,-18,4118,311,100602
12:18:35.142,17440,62.5,72.265625,-894.53125,0.28099800957108706,0.9224065096790033,1.0042624515975374,-1679,-332,-31,4118,311,100602
12:18:35.162,17441,100.5859375,59.5703125,-869.140625,0.2419026343264141,1.029918791601854,1.1484266478122689,-1675,-338,-27,4118,311,100602
12:18:35.183,17442,138.671875,40.0390625,-864.2578125,0.17592918860102844,1.116661655425972,1.2473868164003474,-1669,-339,-30,4118,311,100602
12:18:35.223,17443,157.2265625,21.484375,-847.65625,0.07819075048934597,1.1985175973445061,1.3402383326064458,-1646,-346,-33,4118,311,100602
12:18:35.233,17444,161.1328125,38.0859375,-817.3828125,-0.0024434609527920616,1.2510520078295355,1.4526375364348805,-1645,-353,-32,4118,311,100602
12:18:35.254,17445,196.2890625,50.78125,-803.7109375,-0.12095131716320705,1.2791518087866443,1.5308282869242267,-1629,-355,-38,4118,311,100602
12:18:35.274,17446,196.2890625,83.0078125,-833.984375,-0.19914206765255302,1.3023646878381687,1.6041321155079884,-1612,-353,-55,4118,311,100602
12:18:35.295,17447,194.3359375,111.328125,-893.5546875,-0.3530801076784529,1.4001031259498513,1.6493361431346418,-1599,-350,-45,4118,311,100602
12:18:35.305,17448,239.2578125,150.390625,-900.390625,-0.6853907972581733,1.4880677202503654,1.6701055612333742,-1590,-359,-62,4118,311,100602
12:18:35.325,17449,415.0390625,48.828125,-818.359375,-0.8869763258635184,1.4685200326280292,1.6798794050445423,-1569,-355,-66,4118,311,100602
12:18:35.366,17450,611.328125,-37.109375,-747.0703125,-0.7208209810736581,1.3732250554691385,1.700648823143275,-1564,-359,-61,4118,311,100602
12:18:35.386,17451,731.4453125,-144.53125,-666.015625,-0.4813618077000361,1.3096950706965451,1.7299703545767793,-1551,-360,-75,4118,311,100602
12:18:35.396,17452,881.8359375,-267.578125,-625.9765625,-0.17715091907742447,1.2107349021084666,1.624901533606721,-1534,-362,-79,4118,311,100602
12:18:35.417,17453,1003.90625,-379.8828125,-632.8125,0.23945917337362205,0.9663888068292604,1.3439035240356338,-1526,-367,-81,4118,311,100602
12:18:35.437,17454,1040.0390625,-476.5625,-636.71875,0.2675589743307307,0.8014551925157961,1.1398745344774965,-1499,-372,-79,4118,311,100602
12:18:35.458,17455,1067.3828125,-573.2421875,-648.4375,0.04642575810304917,0.6304129258203519,0.908967474438647,-1516,-384,-101,4118,311,100602
12:18:35.478,17456,1074.21875,-625.9765625,-645.5078125,-0.2712241657599188,0.4813618077000361,0.7098254067860938,-1509,-389,-93,4118,311,100602
12:18:35.488,17457,1023.4375,-582.03125,-639.6484375,-0.5204571829447091,0.37140606482439337,0.4972443038931845,-1507,-384,-100,4118,311,100602
12:18:35.508,17458,959.9609375,-488.28125,-649.4140625,-0.6047565858160352,0.27977627909469105,0.3005456971934236,-1497,-380,-101,4118,311,100602
12:18:35.529,17459,907.2265625,-408.203125,-671.875,-0.5595525581893821,0.1869247628885927,0.1905899543177808,-1492,-386,-99,4118,311,100602
12:18:35.550,17460,871.09375,-335.9375,-698.2421875,-0.45081854579013536,0.1270599695451872,0.13805554383275148,-1494,-380,-95,4118,311,100602
12:18:35.560,17461,822.265625,-280.2734375,-693.359375,-0.2895501229058593,0.06841690667817772,0.15393804002589986,-1478,-376,-99,4118,311,100602
12:18:35.581,17462,790.0390625,-239.2578125,-691.40625,-0.16126842288427604,0.05375614096142535,0.18814649336498873,-1494,-383,-91,4118,311,100602
12:18:35.601,17463,764.6484375,-184.5703125,-720.703125,-0.023212879051524585,0.03543018381548489,0.20402898955813717,-1490,-379,-105,4118,311,100602
12:18:35.632,17464,743.1640625,-169.921875,-723.6328125,0.03298672286269283,0.03665191429188092,0.2211332162276816,-1495,-381,-95,4118,311,100602
12:18:35.653,17465,716.796875,-176.7578125,-713.8671875,-0.04276056667386108,0.03787364476827696,0.2431243648028101,-1470,-377,-105,4118,311,100602
12:18:35.673,17466,700.1953125,-181.640625,-707.03125,-0.1661553447898602,0.0476474885794452,0.3017674276698196,-1472,-371,-97,4118,311,100602
12:18:35.693,17467,683.59375,-144.53125,-708.0078125,-0.2211332162276816,0.06841690667817772,0.36651914291880927,-1493,-384,-101,4118,311,100602
12:18:35.714,17468,672.8515625,-96.6796875,-724.609375,-0.20402898955813717,0.10629055144645469,0.4459316238845512,-1484,-381,-101,4118,311,100602
12:18:35.724,17469,695.3125,-92.7734375,-708.984375,-0.2150245638457014,0.14172073526193957,0.6291911953439558,-1491,-387,-103,4118,311,100602
12:18:35.744,17470,731.4453125,-117.1875,-707.03125,-0.3029891581462157,0.22846359908605776,0.7880161572754398,-1490,-385,-96,4118,311,100602
12:18:35.785,17471,789.0625,-125.9765625,-713.8671875,-0.32253684576855207,0.3042108886226117,0.9492845801597158,-1479,-387,-101,4118,311,100602
12:18:35.805,17472,873.046875,-158.203125,-745.1171875,-0.2748893571891069,0.37629298672997746,1.0971139678036357,-1485,-389,-122,4118,311,100602
12:18:35.815,17473,968.75,-214.84375,-762.6953125,-0.20158552860534507,0.4410447019789671,1.2046262497264864,-1481,-395,-103,4118,311,100602
12:18:35.836,17474,1023.4375,-281.25,-768.5546875,-0.11362093430483088,0.5253441048502933,1.269377964975476,-1478,-402,-118,4118,311,100602
12:18:35.856,17475,1045.8984375,-360.3515625,-786.1328125,0.01710422666954443,0.6157521601035995,1.3267992973660896,-1460,-401,-126,4118,311,100602
12:18:35.876,17476,1071.2890625,-427.734375,-775.390625,0.16737707526625623,0.6976081020221336,1.347568715464822,-1468,-419,-120,4118,311,100602
12:18:35.887,17477,1080.078125,-523.4375,-728.515625,0.24923301718479027,0.7709119306058954,1.312138531649337,-1463,-423,-126,4118,311,100602
12:18:35.907,17478,1058.59375,-569.3359375,-696.2890625,0.39339721339952194,0.7782423134642715,1.1362093430483087,-1462,-434,-136,4118,311,100602
12:18:35.927,17479,1023.4375,-571.2890625,-673.828125,0.48991392103480835,0.7073819458333017,0.9712757287348445,-1453,-442,-145,4118,311,100602
12:18:35.978,17480,978.515625,-572.265625,-649.4140625,0.5363396791378575,0.6218608124855797,0.7880161572754398,-1450,-452,-140,4118,311,100602
12:18:35.998,17481,924.8046875,-578.125,-613.28125,0.5302310267558774,0.514348530562729,0.6145304296272034,-1448,-456,-140,4118,311,100602
12:18:36.19,17482,867.1875,-581.0546875,-553.7109375,0.45204027626653137,0.41172317054546237,0.41172317054546237,-1437,-460,-147,4118,311,100602
12:18:36.40,17483,825.1953125,-576.171875,-513.671875,0.39706240482871,0.3017674276698196,0.20525072003453318,-1445,-469,-164,4118,311,100602
12:18:36.50,17484,775.390625,-526.3671875,-495.1171875,0.37140606482439337,0.1466076571675237,-0.003665191429188092,-1445,-471,-157,4118,311,100602
12:18:36.132,17485,739.2578125,-497.0703125,-489.2578125,0.3042108886226117,-0.0317649923862968,-0.1954768762233649,-1445,-477,-151,4118,311,100602
12:18:36.143,17486,708.984375,-482.421875,-475.5859375,0.1820378409830086,-0.278554548618295,-0.4447098934081552,-1442,-474,-149,4118,311,100602
12:18:36.163,17487,671.875,-453.125,-463.8671875,0.1661553447898602,-0.42516220578581876,-0.5937610115284709,-1445,-473,-138,4118,311,100602
12:18:36.183,17488,647.4609375,-429.6875,-462.890625,0.14049900478554353,-0.5632177496185702,-0.7073819458333017,-1445,-473,-147,4118,311,100602
12:18:36.204,17489,620.1171875,-398.4375,-481.4453125,0.09407324668249437,-0.7061602153569058,-0.8100073058505685,-1444,-464,-136,4118,311,100602
12:18:36.224,17490,575.1953125,-351.5625,-517.578125,0.012217304763960306,-0.833220184902093,-0.8943067087218944,-1455,-463,-141,4118,311,100602
12:18:36.234,17491,542.96875,-343.75,-539.0625,-0.10140362954087055,-0.9285151620609834,-0.9309586230137754,-1467,-457,-130,4118,311,100602
12:18:36.255,17492,535.15625,-314.453125,-585.9375,-0.15271630954950383,-1.0091493735031216,-0.9419541973013398,-1470,-449,-130,4118,311,100602
12:18:36.275,17493,526.3671875,-278.3203125,-616.2109375,-0.08796459430051422,-1.0555751316061706,-0.9358455449193596,-1477,-445,-122,4118,311,100602
12:18:36.295,17494,516.6015625,-268.5546875,-623.046875,0.06230825429619757,-1.1398745344774965,-0.9834930334988048,-1483,-444,-118,4118,311,100602
12:18:36.306,17495,502.9296875,-228.515625,-620.1171875,0.04642575810304917,-1.2021827887736944,-1.0372491744602301,-1489,-437,-101,4118,311,100602
12:18:36.326,17496,491.2109375,-242.1875,-639.6484375,-0.0635299847725936,-1.2437216249711593,-1.1178833859023682,-1491,-431,-97,4118,311,100602
12:18:36.347,17497,506.8359375,-208.984375,-675.78125,-0.23945917337362205,-1.2669345040226838,-1.19118721448613,-1510,-433,-75,4118,311,100602
12:18:36.367,17498,489.2578125,-194.3359375,-706.0546875,-0.3200933848157601,-1.2999212268853766,-1.2669345040226838,-1519,-421,-86,4118,311,100602
12:18:36.387,17499,433.59375,-201.171875,-742.1875,-0.35674529910764097,-1.3280210278424853,-1.2938125745033966,-1522,-410,-78,4118,311,100602
12:18:36.398,17500,357.421875,-183.59375,-750.0,-0.32498030672134415,-1.342681793559238,-1.27426488688106,-1539,-411,-71,4118,311,100602
12:18:36.418,17501,305.6640625,-168.9453125,-759.765625,-0.24068090385001806,-1.3255775668896934,-1.2058479802028823,-1552,-402,-68,4118,311,100602
12:18:36.439,17502,241.2109375,-167.96875,-794.921875,-0.12461650859239513,-1.269377964975476,-1.0910053154216555,-1562,-401,-63,4112,311,100602
12:18:36.459,17503,210.9375,-193.359375,-820.3125,0.025656340004316647,-1.0861183935160714,-0.8478809506188453,-1556,-395,-50,4112,311,100602
12:18:36.479,17504,167.96875,-182.6171875,-852.5390625,0.06963863715457375,-0.911410935391439,-0.6401867696315202,-1582,-391,-58,4112,311,100602
12:18:36.490,17505,136.71875,-166.015625,-886.71875,0.1343903524035634,-0.670730031541421,-0.3652974124424132,-1590,-392,-40,4112,311,100602
12:18:36.510,17506,94.7265625,-152.34375,-881.8359375,0.19181168479417682,-0.37018433434799736,-0.07819075048934597,-1590,-391,-56,4112,311,100602
12:18:36.531,17507,103.515625,-187.5,-852.5390625,0.21746802479849348,-0.03787364476827696,0.2211332162276816,-1599,-397,-42,4112,311,100602
12:18:36.552,17508,121.09375,-171.875,-861.328125,0.21991148575128555,0.2675589743307307,0.5033529562751646,-1594,-398,-56,4112,311,100602
12:18:36.562,17509,171.875,-164.0625,-872.0703125,0.2186897552748895,0.5387831400906496,0.7183775201208661,-1591,-399,-40,4112,311,100602
12:18:36.582,17510,192.3828125,-177.734375,-880.859375,0.23701571242082997,0.753807703936351,0.910189204915043,-1567,-396,-51,4112,311,100602
12:18:36.602,17511,165.0390625,-161.1328125,-891.6015625,0.30543261909900765,0.9883799554043888,1.1349876125719125,-1574,-411,-50,4112,311,100602
12:18:36.623,17512,178.7109375,-175.78125,-861.328125,0.35185837720205687,1.1667526049582093,1.2608258516407038,-1570,-418,-54,4112,311,100602
12:18:36.643,17513,235.3515625,-234.375,-830.078125,0.28099800957108706,1.2950343049797925,1.3194689145077132,-1562,-425,-62,4112,311,100602
12:18:36.653,17514,240.234375,-254.8828125,-797.8515625,0.07330382858376185,1.4147638916666034,1.3292427583188815,-1549,-435,-73,4112,311,100602
12:18:36.674,17515,381.8359375,-280.2734375,-776.3671875,-0.10629055144645469,1.5112805993018898,1.3683381335635545,-1537,-435,-72,4112,311,100602
12:18:36.694,17516,476.5625,-277.34375,-783.203125,-0.11239920382843484,1.5051719469199099,1.3634512116579702,-1526,-440,-86,4112,311,100602
12:18:36.715,17517,541.9921875,-301.7578125,-729.4921875,-0.014660765716752368,1.4831807983447813,1.3145819926021292,-1503,-437,-99,4112,311,100602
12:18:36.735,17518,721.6796875,-411.1328125,-660.15625,0.03787364476827696,1.4477506145292964,1.2058479802028823,-1501,-454,-99,4112,311,100602
12:18:36.746,17519,948.2421875,-493.1640625,-625.0,0.0158824961931484,1.2363912421127832,0.995710338262765,-1493,-455,-116,4112,311,100602
12:18:36.766,17520,1015.625,-517.578125,-612.3046875,-0.03054326190990077,1.0543534011297746,0.8112290363269644,-1484,-460,-114,4112,311,100602
12:18:36.787,17521,939.453125,-493.1640625,-610.3515625,-0.0867428638241182,0.9016370915802707,0.6218608124855797,-1475,-461,-119,4112,311,100602
12:18:36.807,17522,936.5234375,-494.140625,-552.734375,-0.197920337176157,0.7745771220350836,0.4569271981721155,-1477,-461,-141,4112,311,100602
12:18:36.818,17523,964.84375,-512.6953125,-527.34375,-0.3481931857728688,0.5668829410477583,0.3078760800517997,-1471,-462,-129,4112,311,100602
12:18:36.838,17524,916.9921875,-454.1015625,-541.9921875,-0.40927970959267035,0.36163222101322506,0.2577851305195625,-1467,-462,-131,4112,311,100602
12:18:36.859,17525,833.0078125,-393.5546875,-544.921875,-0.2101376419401173,0.23701571242082997,0.24556782575560218,-1466,-464,-128,4112,311,100602
12:18:36.880,17526,810.546875,-429.6875,-570.3125,0.16493361431346415,0.1710422666954443,0.1820378409830086,-1464,-464,-134,4112,311,100602
12:18:36.890,17527,824.21875,-477.5390625,-589.84375,0.29932396671702755,0.1148426647812269,0.1075122819228507,-1459,-467,-133,4112,311,100602
12:18:36.911,17528,833.984375,-479.4921875,-583.0078125,0.07941248096574201,0.05986479334340551,0.05986479334340551,-1466,-470,-140,4112,311,100602
12:18:36.931,17529,824.21875,-462.890625,-598.6328125,-0.023212879051524585,0.0476474885794452,-0.020769418098732523,-1460,-465,-133,4112,311,100602
12:18:36.952,17530,820.3125,-454.1015625,-617.1875,-0.03420845333908886,0.023212879051524585,-0.08063421144213802,-1464,-465,-141,4112,311,100602
12:18:36.962,17531,808.59375,-438.4765625,-636.71875,-0.04398229715025711,-0.006108652381980153,-0.1148426647812269,-1461,-463,-134,4112,311,100602
12:18:36.982,17532,800.78125,-417.96875,-641.6015625,-0.05742133239061345,-0.026878070480712675,-0.12461650859239513,-1466,-463,-136,4112,311,100602
12:18:37.3,17533,789.0625,-416.9921875,-640.625,-0.004886921905584123,-0.05009094953223726,-0.10629055144645469,-1465,-459,-130,4112,311,100602
12:18:37.43,17534,783.203125,-426.7578125,-638.671875,0.05497787143782139,-0.05497787143782139,-0.09773843811168245,-1468,-462,-140,4112,311,100602
12:18:37.53,17535,762.6953125,-405.2734375,-648.4375,0.08918632477691024,-0.06963863715457375,-0.09285151620609834,-1467,-466,-146,4112,311,100602
12:18:37.73,17536,737.3046875,-395.5078125,-647.4609375,0.10262536001726659,-0.09773843811168245,-0.05375614096142535,-1472,-470,-131,4112,311,100602
12:18:37.94,17537,697.265625,-372.0703125,-661.1328125,0.10506882097005865,-0.10995574287564278,-0.029321531433504737,-1470,-468,-133,4112,311,100602
12:18:37.114,17538,645.5078125,-325.1953125,-678.7109375,0.16493361431346415,-0.1038470904936626,-0.0024434609527920616,-1457,-465,-134,4112,311,100602
12:18:37.134,17539,586.9140625,-301.7578125,-686.5234375,0.20891591146372127,-0.05986479334340551,0.05375614096142535,-1471,-468,-130,4112,311,100602
12:18:37.145,17540,537.109375,-268.5546875,-691.40625,0.1905899543177808,0.01710422666954443,0.1111774733520388,-1476,-473,-135,4112,311,100602
12:18:37.165,17541,485.3515625,-203.125,-711.9140625,0.15393804002589986,0.1148426647812269,0.19303341527057283,-1468,-468,-139,4112,311,100602
12:18:37.185,17542,442.3828125,-165.0390625,-705.078125,0.15760323145508798,0.2101376419401173,0.29810223624063154,-1467,-474,-137,4112,311,100602
12:18:37.206,17543,399.4140625,-140.625,-681.640625,0.16004669240788005,0.2883283924294633,0.4324925886441948,-1466,-478,-149,4112,311,100602
12:18:37.226,17544,393.5546875,-198.2421875,-569.3359375,0.1075122819228507,0.3872885610175418,0.6352998477259361,-1465,-484,-140,4112,311,100602
12:18:37.236,17545,432.6171875,-269.53125,-464.84375,-0.08552113334772216,0.4288273972150068,0.7586946258419351,-1445,-481,-136,4112,311,100602
12:18:37.256,17546,471.6796875,-298.828125,-449.21875,-0.32375857624494814,0.40805797911627434,0.8735372906231619,-1460,-489,-139,4112,311,100602
12:18:37.276,17547,517.578125,-328.125,-437.5,-0.4068362486398782,0.33719761148530447,0.995710338262765,-1458,-495,-147,4112,311,100602
12:18:37.307,17548,559.5703125,-378.90625,-439.453125,-0.3286454981505323,0.2076941809873252,1.0421360963658144,-1454,-501,-149,4112,311,100602
12:18:37.327,17549,634.765625,-455.078125,-403.3203125,-0.28099800957108706,0.03665191429188092,1.0274753306490618,-1453,-499,-144,4112,311,100602
12:18:37.347,17550,678.7109375,-521.484375,-373.046875,-0.34941491624926485,-0.1502728485967118,0.956614963018092,-1459,-507,-162,4112,311,100602
12:18:37.368,17551,705.078125,-604.4921875,-408.203125,-0.4825835381764321,-0.33964107243809655,0.8625417163355976,-1463,-511,-149,4112,311,100602
12:18:37.388,17552,752.9296875,-659.1796875,-446.2890625,-0.5461135229490258,-0.5290092962794813,0.748920782030767,-1456,-505,-141,4124,311,100605
12:18:37.398,17553,816.40625,-703.125,-474.609375,-0.5473352534254218,-0.7599163563183312,0.6475171524898963,-1474,-507,-124,4124,311,100605
12:18:37.419,17554,852.5390625,-760.7421875,-491.2109375,-0.6230825429619757,-0.8723155601467659,0.516791991515521,-1482,-510,-132,4124,311,100605
12:18:37.460,17555,858.3984375,-801.7578125,-535.15625,-0.6976081020221336,-0.9749409201640327,0.3811799086355616,-1492,-508,-124,4124,311,100605
12:18:37.480,17556,865.234375,-815.4296875,-595.703125,-0.7000515629749257,-1.0433578268422103,0.2138028333693054,-1496,-501,-113,4124,311,100605
12:18:37.490,17557,863.28125,-822.265625,-634.765625,-0.6084217772452234,-1.0983356982800316,0.013439035240356337,-1515,-496,-113,4124,311,100605
12:18:37.511,17558,843.75,-828.125,-678.7109375,-0.48991392103480835,-1.1301006906663282,-0.18448130193580062,-1519,-492,-95,4124,311,100605
12:18:37.531,17559,818.359375,-836.9140625,-713.8671875,-0.41050144006906636,-1.1630874135290212,-0.39217548292312593,-1516,-488,-102,4124,311,100605
12:18:37.551,17560,783.203125,-813.4765625,-760.7421875,-0.43615778007338296,-1.1936306754389219,-0.5815437067645106,-1533,-490,-98,4124,311,100605
12:18:37.561,17561,725.5859375,-752.9296875,-786.1328125,-0.42394047530942264,-1.2241739373488227,-0.8808676734815382,-1540,-478,-73,4124,311,100605
12:18:37.602,17562,679.6875,-693.359375,-795.8984375,-0.3103195410045918,-1.2180652849668427,-1.0665707058937348,-1546,-480,-70,4124,311,100605
12:18:37.622,17563,648.4375,-645.5078125,-805.6640625,-0.18570303241219668,-1.230282589730803,-1.2290608592544068,-1560,-471,-69,4124,311,100605
12:18:37.642,17564,595.703125,-586.9140625,-814.453125,-0.12095131716320705,-1.2620475821170998,-1.3646729421343664,-1573,-462,-68,4124,311,100605
12:18:37.652,17565,533.203125,-515.625,-829.1015625,-0.2028072590817411,-1.2583823906879117,-1.4587461888168607,-1575,-458,-55,4124,311,100605
12:18:37.673,17566,478.515625,-408.203125,-833.984375,-0.17715091907742447,-1.2608258516407038,-1.5173892516838703,-1578,-452,-63,4124,311,100605
12:18:37.693,17567,417.96875,-326.171875,-869.140625,0.10262536001726659,-1.2913691135506045,-1.589471349791236,-1599,-444,-46,4124,311,100605
12:18:37.713,17568,353.515625,-307.6171875,-895.5078125,0.39828413530510604,-1.347568715464822,-1.618792881224741,-1601,-446,-52,4124,311,100605
12:18:37.805,17569,282.2265625,-299.8046875,-913.0859375,0.1734857276482364,-1.4013248564262473,-1.5992451936024044,-1619,-445,-47,4124,311,100605
12:18:37.825,17570,189.453125,-271.484375,-923.828125,-0.19669860669976097,-1.430646387859752,-1.5931365412204241,-1636,-440,-41,4124,311,100605
12:18:37.835,17571,90.8203125,-213.8671875,-920.8984375,-0.33964107243809655,-1.4318681183361481,-1.583362697409256,-1642,-433,-40,4124,311,100605
12:18:37.855,17572,32.2265625,-124.0234375,-930.6640625,-0.22846359908605776,-1.4086552392846234,-1.5381586697826028,-1661,-432,-30,4124,311,100605
12:18:37.876,17573,-37.109375,-128.90625,-962.890625,-0.26022859147235455,-1.3707815945163466,-1.4343115792889403,-1672,-421,-34,4124,311,100605
12:18:37.896,17574,-139.6484375,-90.8203125,-993.1640625,-0.42516220578581876,-1.27426488688106,-1.2241739373488227,-1679,-421,-39,4124,311,100605
12:18:37.916,17575,-202.1484375,-31.25,-1039.0625,-0.36163222101322506,-1.1044443506620119,-0.995710338262765,-1698,-414,-35,4124,311,100605
12:18:37.926,17576,-233.3984375,-7.8125,-1082.03125,-0.18325957145940464,-0.8405505677604692,-0.7134905982152819,-1701,-414,-20,4124,311,100605
12:18:37.946,17577,-259.765625,13.671875,-1094.7265625,-0.05742133239061345,-0.31764992386296803,-0.2076941809873252,-1694,-405,-28,4124,311,100605
12:18:37.967,17578,-271.484375,0.9765625,-1088.8671875,-0.04642575810304917,0.05497787143782139,0.1502728485967118,-1707,-408,-28,4124,311,100605
12:18:37.987,17579,-230.46875,-22.4609375,-1079.1015625,-0.012217304763960306,0.4276056667386108,0.4923573819876005,-1709,-413,-25,4124,311,100605
12:18:38.7,17580,-160.15625,-11.71875,-1093.75,0.12095131716320705,0.7220427115500542,0.7709119306058954,-1690,-410,-27,4124,311,100605
12:18:38.17,17581,-117.1875,-46.875,-1079.1015625,0.2883283924294633,0.9431759277777358,0.9969320687391611,-1692,-414,-33,4124,311,100605
12:18:38.38,17582,-81.0546875,-102.5390625,-1055.6640625,0.28099800957108706,1.1191051163787642,1.1801916401985657,-1680,-418,-23,4124,311,100605
12:18:38.58,17583,-64.453125,-134.765625,-1008.7890625,0.1893682238413848,1.2705996954518721,1.2950343049797925,-1673,-419,-24,4124,311,100605
12:18:38.78,17584,-60.546875,-166.9921875,-940.4296875,0.08552113334772216,1.4049900478554356,1.342681793559238,-1658,-427,-26,4124,311,100605
12:18:38.89,17585,-43.9453125,-214.84375,-853.515625,-0.03787364476827696,1.543045591688187,1.2938125745033966,-1646,-433,-36,4124,311,100605
12:18:38.109,17586,93.75,-321.2890625,-777.34375,-0.24556782575560218,1.6358971078942852,1.156978761147041,-1634,-429,-34,4124,311,100605
12:18:38.129,17587,353.515625,-389.6484375,-742.1875,-0.3420845333908886,1.5552628964521473,1.070235897322923,-1601,-429,-46,4124,311,100605
12:18:38.150,17588,568.359375,-392.578125,-743.1640625,-0.2345722514680379,1.3927727430914751,0.9480628496833199,-1604,-428,-41,4124,311,100605
12:18:38.170,17589,686.5234375,-445.3125,-804.6875,0.03787364476827696,1.2009610582972983,0.7794640439406676,-1595,-431,-56,4124,311,100605
12:18:38.180,17590,799.8046875,-563.4765625,-791.015625,0.1466076571675237,1.0152580258851016,0.5742133239061344,-1585,-437,-66,4124,311,100605
12:18:38.201,17591,894.53125,-627.9296875,-754.8828125,0.024434609527920613,0.8161159582325487,0.3628539514896212,-1576,-436,-61,4124,311,100605
12:18:38.221,17592,953.125,-620.1171875,-764.6484375,-0.2150245638457014,0.6243042734383717,0.19914206765255302,-1562,-439,-66,4124,311,100605
12:18:38.241,17593,946.2890625,-561.5234375,-835.9375,-0.32498030672134415,0.46303585055409563,0.09407324668249437,-1545,-428,-58,4124,311,100605
12:18:38.262,17594,914.0625,-504.8828125,-863.28125,-0.11239920382843484,0.2748893571891069,0.02809980095710871,-1557,-428,-71,4124,311,100605
12:18:38.272,17595,825.1953125,-462.890625,-845.703125,0.10629055144645469,0.2076941809873252,-0.0012217304763960308,-1558,-428,-58,4124,311,100605
12:18:38.292,17596,740.234375,-432.6171875,-809.5703125,0.16859880574265224,0.16493361431346415,0.023212879051524585,-1559,-428,-76,4124,311,100605
12:18:38.312,17597,675.78125,-397.4609375,-784.1796875,0.1270599695451872,0.13316862192716736,0.06963863715457375,-1560,-434,-74,4124,311,100605
12:18:38.333,17598,620.1171875,-361.328125,-795.8984375,0.0867428638241182,0.10995574287564278,0.11728612573401895,-1557,-439,-59,4124,311,100605
12:18:38.353,17599,589.84375,-313.4765625,-805.6640625,0.17837264955382048,0.08796459430051422,0.14049900478554353,-1554,-437,-72,4124,311,100605
12:18:38.363,17600,557.6171875,-304.6875,-776.3671875,0.37629298672997746,0.07819075048934597,0.15393804002589986,-1557,-443,-70,4124,311,100605
12:18:38.384,17601,529.296875,-340.8203125,-772.4609375,0.4642575810304917,0.0671951762017817,0.15271630954950383,-1548,-447,-68,4124,311,100605
12:18:38.404,17602,496.09375,-375.0,-756.8359375,0.3811799086355616,0.029321531433504737,0.1148426647812269,-1553,-448,-65,4118,312,100605
12:18:38.425,17603,457.03125,-390.625,-773.4375,0.3286454981505323,0.021991148575128554,0.06108652381980154,-1555,-453,-63,4118,312,100605
12:18:38.435,17604,416.9921875,-395.5078125,-799.8046875,0.31764992386296803,0.012217304763960306,-0.01832595714594046,-1550,-459,-57,4118,312,100605
12:18:38.455,17605,389.6484375,-405.2734375,-798.828125,0.3384193419617005,0.01710422666954443,-0.09651670763528641,-1548,-451,-71,4118,312,100605
12:18:38.476,17606,361.328125,-433.59375,-794.921875,0.36896260387160124,0.0158824961931484,-0.20891591146372127,-1559,-458,-70,4118,312,100605
12:18:38.496,17607,328.125,-493.1640625,-791.9921875,0.3127630019573839,0.03665191429188092,-0.34086280291449256,-1551,-459,-75,4118,312,100605
12:18:38.517,17608,317.3828125,-540.0390625,-787.109375,0.1429424657383356,0.025656340004316647,-0.4813618077000361,-1545,-459,-75,4118,312,100605
12:18:38.527,17609,323.2421875,-569.3359375,-776.3671875,-0.05619960191421742,-0.007330382858376184,-0.6462954220135002,-1556,-456,-65,4118,312,100605
12:18:38.548,17610,339.84375,-572.265625,-755.859375,-0.16737707526625623,-0.052534410485029326,-0.9395107363485476,-1555,-458,-76,4118,312,100605
12:18:38.568,17611,346.6796875,-598.6328125,-736.328125,-0.12461650859239513,-0.1343903524035634,-1.1496483782886648,-1553,-453,-72,4118,312,100605
12:18:38.589,17612,334.9609375,-602.5390625,-728.515625,-0.19181168479417682,-0.197920337176157,-1.3634512116579702,-1558,-442,-61,4118,312,100605
12:18:38.599,17613,332.03125,-594.7265625,-733.3984375,-0.4324925886441948,-0.2846632010002752,-1.5821409669328599,-1562,-431,-65,4118,312,100605
12:18:38.619,17614,328.125,-549.8046875,-733.3984375,-0.8307767239493008,-0.37629298672997746,-1.7800613041090168,-1561,-423,-70,4118,312,100605
12:18:38.639,17615,318.359375,-504.8828125,-726.5625,-1.271821425928268,-0.46670104198328377,-1.9620991450920255,-1554,-406,-63,4118,312,100605
12:18:38.659,17616,321.2890625,-434.5703125,-732.421875,-1.587027888838444,-0.5253441048502933,-2.1184806460707173,-1574,-387,-55,4118,312,100605
12:18:38.680,17617,329.1015625,-372.0703125,-723.6328125,-1.7654005383922646,-0.5815437067645106,-2.219884275611588,-1578,-373,-64,4118,312,100605
12:18:38.711,17618,315.4296875,-227.5390625,-726.5625,-1.822821870782878,-0.594982742004867,-2.315179252770478,-1587,-351,-58,4118,312,100605
12:18:38.731,17619,292.96875,-41.015625,-737.3046875,-1.7018705536196708,-0.5546656362837981,-2.5302038166161798,-1600,-317,-62,4118,312,100605
12:18:38.751,17620,286.1328125,15.625,-777.34375,-1.5173892516838703,-0.5302310267558774,-2.673146282354516,-1603,-306,-64,4118,312,100605
12:18:38.771,17621,294.921875,12.6953125,-774.4140625,-1.4025465869026434,-0.5119050696099369,-2.7488935718910694,-1614,-282,-62,4118,312,100605
12:18:38.782,17622,286.1328125,64.453125,-754.8828125,-1.2669345040226838,-0.44959681531373935,-2.7782151033245737,-1613,-256,-64,4118,312,100605
12:18:38.802,17623,272.4609375,149.4140625,-785.15625,-0.9676105373056564,-0.4043927876870862,-2.8393016271443754,-1647,-247,-67,4118,312,100605
12:18:38.822,17624,253.90625,235.3515625,-822.265625,-0.7000515629749257,-0.38606683054114566,-2.8893925766766126,-1654,-235,-69,4118,312,100605
12:18:38.853,17625,256.8359375,269.53125,-824.21875,-0.5424483315198376,-0.4068362486398782,-2.9174923776337214,-1675,-224,-77,4118,312,100605
12:18:38.873,17626,259.765625,277.34375,-802.734375,-0.5522221753310059,-0.41905355340383854,-2.899166420487781,-1690,-217,-68,4118,312,100605
12:18:38.893,17627,249.0234375,292.96875,-771.484375,-0.5937610115284709,-0.43615778007338296,-2.9223792995393056,-1701,-212,-58,4118,312,100605
12:18:38.914,17628,237.3046875,315.4296875,-765.625,-0.5937610115284709,-0.4801400772236401,-2.961474674783979,-1724,-204,-80,4118,312,100605
12:18:39.5,17629,201.171875,380.859375,-775.390625,-0.7831292353698558,-0.560774288665778,-2.950479100496414,-1747,-196,-62,4118,312,100605
12:18:39.26,17630,162.109375,420.8984375,-762.6953125,-1.0995574287564276,-0.6218608124855797,-2.9382617957324544,-1756,-191,-76,4118,312,100605
12:18:39.36,17631,124.0234375,450.1953125,-743.1640625,-1.3487904459412179,-0.6939429105929455,-2.906496803346158,-1782,-184,-78,4118,312,100605
12:18:39.57,17632,93.75,498.046875,-719.7265625,-1.3267992973660896,-0.748920782030767,-2.916270647157325,-1803,-176,-82,4118,312,100605
12:18:39.77,17633,77.1484375,561.5234375,-709.9609375,-1.0421360963658144,-0.8295549934729048,-2.926044490968494,-1822,-173,-88,4118,312,100605
12:18:39.97,17634,39.0625,606.4453125,-723.6328125,-0.8662069077647858,-0.9016370915802707,-2.895501229058593,-1845,-169,-102,4118,312,100605
12:18:39.108,17635,-23.4375,633.7890625,-708.0078125,-1.2376129725891793,-0.9615018849236762,-2.809980095710871,-1873,-163,-113,4118,312,100605
12:18:39.128,17636,-84.9609375,644.53125,-679.6875,-1.0433578268422103,-1.0567968620825665,-2.789210677612138,-1876,-161,-119,4118,312,100605
12:18:39.148,17637,-107.421875,654.296875,-657.2265625,-0.9456193887305279,-1.1337658820955165,-2.7745499118953862,-1914,-165,-113,4118,312,100605
12:18:39.169,17638,-125.0,650.390625,-644.53125,-0.8637634468119937,-1.2119566325848627,-2.7488935718910694,-1941,-173,-123,4118,312,100605
12:18:39.189,17639,-181.640625,640.625,-611.328125,-0.993266877309973,-1.2962560354561887,-2.6792549347364956,-1948,-173,-132,4118,312,100605
12:18:39.199,17640,-272.4609375,683.59375,-602.5390625,-1.150870108765061,-1.3292427583188815,-2.634050907109842,-1982,-175,-145,4118,312,100605
12:18:39.220,17641,-334.9609375,732.421875,-600.5859375,-1.0824532020868831,-1.315803723078525,-2.623055332822278,-2006,-186,-158,4118,312,100605
12:18:39.241,17642,-326.171875,784.1796875,-580.078125,-0.8796459430051422,-1.3329079497480694,-2.6193901413930902,-2016,-190,-166,4118,312,100605
12:18:39.261,17643,-403.3203125,728.515625,-577.1484375,-0.7415903991723907,-1.3720033249927428,-2.5864034185303972,-2039,-197,-178,4118,312,100605
12:18:39.272,17644,-466.796875,639.6484375,-612.3046875,-1.111774733520388,-1.336573141177258,-2.4092524994529727,-2067,-211,-190,4118,312,100605
12:18:39.292,17645,-494.140625,607.421875,-617.1875,-1.4795156069155933,-1.2779300783102483,-2.30540540895931,-2077,-217,-212,4118,312,100605
12:18:39.313,17646,-503.90625,648.4375,-585.9375,-1.705535745048859,-1.2473868164003474,-2.2760838775258057,-2098,-226,-225,4118,312,100605
12:18:39.333,17647,-541.9921875,708.984375,-553.7109375,-1.6798794050445423,-1.2107349021084666,-2.3335052099164186,-2116,-233,-229,4118,312,100605
12:18:39.353,17648,-588.8671875,753.90625,-541.9921875,-1.4575244583404645,-1.1374310735247046,-2.425134995646121,-2128,-236,-230,4118,312,100605
12:18:39.364,17649,-619.140625,771.484375,-543.9453125,-1.1643091440054174,-1.069014166846527,-2.5082126680410513,-2143,-253,-251,4118,312,100605
12:18:39.384,17650,-679.6875,740.234375,-490.234375,-0.9639453458764682,-1.0592403230353586,-2.603507645199942,-2148,-266,-278,4118,312,100605
12:18:39.405,17651,-747.0703125,692.3828125,-425.78125,-1.03114052207825,-1.0580185925589627,-2.651155133779387,-2167,-278,-282,4118,312,100605
12:18:39.425,17652,-833.984375,677.734375,-416.015625,-1.2877039221214164,-1.072679358275715,-2.6572637861613675,-2185,-301,-288,4118,312,100604
12:18:39.445,17653,-870.1171875,686.5234375,-434.5703125,-1.4416419621473162,-1.0848966630396752,-2.5705209223372485,-2196,-323,-298,4118,312,100604
12:18:39.455,17654,-884.765625,704.1015625,-445.3125,-1.467298302151633,-1.0946705068508435,-2.4593434489852104,-2207,-342,-311,4118,312,100604
12:18:39.475,17655,-890.625,712.890625,-456.0546875,-1.1533135697178531,-1.1362093430483087,-2.3616050108735274,-2209,-354,-336,4118,312,100604
12:18:39.496,17656,-919.921875,710.9375,-487.3046875,-0.6279694648675598,-1.1728612573401895,-2.2101104318004197,-2218,-372,-337,4118,312,100604
12:18:39.517,17657,-935.546875,714.84375,-486.328125,-0.06230825429619757,-1.232726050683595,-1.9584339536628372,-2223,-385,-353,4118,312,100604
12:18:39.527,17658,-949.21875,660.15625,-397.4609375,0.2528982086139784,-1.2534954687823276,-1.6884315183793146,-2230,-394,-345,4118,312,100604
12:18:39.547,17659,-975.5859375,593.75,-333.984375,0.3530801076784529,-1.2583823906879117,-1.4563027278640688,-2233,-410,-373,4118,312,100604
12:18:39.568,17660,-1003.90625,570.3125,-339.84375,0.37507125625358145,-1.2767083478338521,-1.160643952576229,-2223,-418,-387,4118,312,100604
12:18:39.589,17661,-1005.859375,560.546875,-349.609375,0.4838052686528282,-1.3133602621257332,-1.0103711039795176,-2236,-424,-392,4118,312,100604
12:18:39.609,17662,-992.1875,541.015625,-356.4453125,0.6805038753525892,-1.3658946726107624,-0.8564330639536176,-2239,-437,-391,4118,312,100604
12:18:39.619,17663,-974.609375,502.9296875,-324.21875,0.8686503687175778,-1.4172073526193958,-0.7330382858376185,-2242,-443,-424,4118,312,100604
12:18:39.640,17664,-984.375,482.421875,-333.984375,1.0348057135074382,-1.4318681183361481,-0.6072000467688273,-2224,-442,-424,4118,312,100604
12:18:39.660,17665,-981.4453125,404.296875,-407.2265625,0.9468411192069238,-1.3720033249927428,-0.4642575810304917,-2245,-452,-441,4118,312,100604
12:18:39.680,17666,-976.5625,266.6015625,-365.234375,0.43860124102617504,-1.2596041211643076,-0.34086280291449256,-2240,-455,-449,4118,312,100604
12:18:39.691,17667,-958.0078125,221.6796875,-274.4140625,-0.31642819338657197,-1.1264354992371404,-0.3042108886226117,-2241,-453,-460,4118,312,100604
12:18:39.711,17668,-960.9375,336.9140625,-267.578125,-0.7611380867947273,-0.993266877309973,-0.3420845333908886,-2238,-460,-477,4118,312,100604
12:18:39.732,17669,-967.7734375,438.4765625,-291.015625,-0.5229006438975012,-0.8845328649107264,-0.35185837720205687,-2243,-461,-466,4118,312,100604
12:18:39.752,17670,-985.3515625,409.1796875,-306.640625,-0.3066543495754037,-0.8246680715673209,-0.2895501229058593,-2243,-464,-479,4118,312,100604
12:18:39.762,17671,-978.515625,351.5625,-296.875,-0.27611108766550296,-0.7733553915586875,-0.24434609527920617,-2232,-462,-487,4118,312,100604
12:18:39.783,17672,-962.890625,325.1953125,-284.1796875,-0.36163222101322506,-0.7086036763096979,-0.21258110289290938,-2242,-467,-491,4118,312,100604
12:18:39.803,17673,-945.3125,353.515625,-286.1328125,-0.3530801076784529,-0.6511823439190844,-0.17592918860102844,-2238,-474,-497,4118,312,100604
12:18:39.844,17674,-968.75,365.234375,-282.2265625,-0.3005456971934236,-0.5913175505756788,-0.1429424657383356,-2227,-473,-512,4118,312,100604
12:18:39.855,17675,-1016.6015625,338.8671875,-250.0,-0.2614503219487506,-0.5204571829447091,-0.0989601685880785,-2230,-471,-506,4118,312,100604
12:18:39.875,17676,-1038.0859375,306.640625,-221.6796875,-0.2223549467040776,-0.4569271981721155,-0.04031710572106901,-2228,-470,-509,4118,312,100604
12:18:39.895,17677,-1031.25,301.7578125,-212.890625,-0.05375614096142535,-0.37507125625358145,0.058643062867009474,-2230,-474,-519,4118,312,100604
12:18:39.916,17678,-1020.5078125,293.9453125,-208.984375,0.07574728953655392,-0.33597588100890846,0.12828170002158323,-2223,-475,-526,4118,312,100604
12:18:39.936,17679,-1027.34375,246.09375,-171.875,0.023212879051524585,-0.28099800957108706,0.17226399717184035,-2231,-473,-531,4118,312,100604
12:18:39.946,17680,-1017.578125,198.2421875,-121.09375,-0.14172073526193957,-0.238237442897226,0.19669860669976097,-2226,-472,-529,4118,312,100604
12:18:39.967,17681,-998.046875,184.5703125,-106.4453125,-0.2076941809873252,-0.19914206765255302,0.20036379812894903,-2228,-471,-527,4118,312,100604
12:18:39.987,17682,-970.703125,206.0546875,-86.9140625,-0.10873401239924674,-0.18448130193580062,0.16982053621904827,-2224,-468,-522,4118,312,100604
12:18:40.7,17683,-969.7265625,211.9140625,-74.21875,0.07941248096574201,-0.15149457907310784,0.1392772743091475,-2230,-468,-533,4118,312,100604
12:18:40.17,17684,-953.125,208.0078125,-45.8984375,0.2614503219487506,-0.1429424657383356,0.08918632477691024,-2232,-466,-536,4118,312,100604
12:18:40.38,17685,-942.3828125,216.796875,-18.5546875,0.5742133239061344,-0.17592918860102844,0.021991148575128554,-2224,-463,-541,4118,312,100604
12:18:40.58,17686,-929.6875,213.8671875,-13.671875,0.7220427115500542,-0.18081611050661253,-0.013439035240356337,-2230,-461,-532,4118,312,100604
12:18:40.79,17687,-936.5234375,178.7109375,-65.4296875,0.6805038753525892,-0.15760323145508798,-0.024434609527920613,-2227,-463,-525,4118,312,100604
12:18:40.110,17688,-936.5234375,146.484375,-33.203125,0.3824016391119576,-0.10018189906447451,-0.05986479334340551,-2222,-456,-534,4118,312,100604
12:18:40.130,17689,-916.9921875,148.4375,-7.8125,0.014660765716752368,-0.06108652381980154,-0.1233947781159991,-2229,-457,-533,4118,312,100604
12:18:40.150,17690,-936.5234375,211.9140625,-19.53125,-0.14172073526193957,-0.013439035240356337,-0.17592918860102844,-2226,-457,-536,4118,312,100604
12:18:40.171,17691,-952.1484375,269.53125,-35.15625,-0.06963863715457375,-0.0012217304763960308,-0.16004669240788005,-2226,-464,-541,4118,312,100604
12:18:40.191,17692,-968.75,295.8984375,-0.0,0.15149457907310784,-0.007330382858376184,-0.15760323145508798,-2208,-454,-533,4118,312,100604
12:18:40.201,17693,-974.609375,306.640625,5.859375,0.39828413530510604,-0.048869219055841226,-0.13194689145077132,-2232,-463,-533,4118,312,100604
12:18:40.221,17694,-980.46875,294.921875,1.953125,0.7305948248848264,-0.12217304763960309,-0.06230825429619757,-2225,-459,-544,4118,312,100604
12:18:40.262,17695,-980.46875,287.109375,-23.4375,0.8564330639536176,-0.1551597705022959,-0.0158824961931484,-2225,-465,-549,4118,312,100604
12:18:40.272,17696,-989.2578125,235.3515625,-57.6171875,0.7464773210779747,-0.1343903524035634,0.029321531433504737,-2224,-458,-541,4118,312,100604
12:18:40.293,17697,-968.75,166.015625,-30.2734375,0.39706240482871,-0.08796459430051422,0.06597344572538566,-2224,-456,-553,4118,312,100604
12:18:40.313,17698,-953.125,173.828125,-16.6015625,0.09040805525330627,-0.04276056667386108,0.039095375244672985,-2225,-454,-547,4118,312,100604
12:18:40.333,17699,-946.2890625,232.421875,-24.4140625,0.029321531433504737,-0.021991148575128554,-0.008552113334772215,-2208,-453,-550,4118,312,100604
12:18:40.353,17700,-937.5,266.6015625,-26.3671875,0.1734857276482364,-0.014660765716752368,-0.021991148575128554,-2220,-459,-548,4118,312,100604
12:18:40.364,17701,-937.5,251.953125,-24.4140625,0.36896260387160124,-0.029321531433504737,-0.048869219055841226,-2224,-453,-546,4118,312,100604
12:18:40.404,17702,-939.453125,232.421875,-24.4140625,0.5045746867515608,-0.05986479334340551,-0.0952949771588904,-2223,-452,-559,4112,311,100606
12:18:40.424,17703,-951.171875,228.515625,-26.3671875,0.4948008429403924,-0.0671951762017817,-0.10506882097005865,-2224,-452,-548,4112,311,100606
12:18:40.445,17704,-959.9609375,211.9140625,-32.2265625,0.41416663149825445,-0.04642575810304917,-0.10506882097005865,-2225,-453,-550,4112,311,100606
12:18:40.455,17705,-963.8671875,192.3828125,-24.4140625,0.2736676267127109,-0.03054326190990077,-0.0867428638241182,-2222,-458,-551,4112,311,100606
12:18:40.475,17706,-960.9375,202.1484375,-18.5546875,0.1820378409830086,-0.0024434609527920616,-0.0671951762017817,-2218,-458,-555,4112,311,100606
12:18:40.495,17707,-960.9375,226.5625,-17.578125,0.16982053621904827,0.003665191429188092,-0.026878070480712675,-2221,-455,-544,4112,311,100606
12:18:40.516,17708,-963.8671875,244.140625,-18.5546875,0.22602013813326569,0.008552113334772215,0.010995574287564277,-2223,-453,-563,4112,311,100606
12:18:40.536,17709,-963.8671875,239.2578125,-17.578125,0.278554548618295,-0.024434609527920613,0.021991148575128554,-2223,-450,-568,4112,311,100606
12:18:40.546,17710,-959.9609375,224.609375,-26.3671875,0.24923301718479027,-0.021991148575128554,0.029321531433504737,-2223,-448,-550,4112,311,100606
12:18:40.566,17711,-950.1953125,206.0546875,-37.109375,0.16737707526625623,-0.008552113334772215,0.010995574287564277,-2228,-452,-562,4112,311,100606
12:18:40.587,17712,-951.171875,210.9375,-21.484375,0.1075122819228507,0.010995574287564277,-0.004886921905584123,-2230,-453,-549,4112,311,100606
12:18:40.607,17713,-956.0546875,220.703125,-14.6484375,0.08552113334772216,0.04398229715025711,-0.020769418098732523,-2221,-448,-556,4112,311,100606
12:18:40.617,17714,-956.0546875,233.3984375,-13.671875,0.10629055144645469,0.04031710572106901,-0.024434609527920613,-2229,-447,-555,4112,311,100606
12:18:40.638,17715,-951.171875,230.46875,-20.5078125,0.15882496193148402,0.039095375244672985,-0.019547687622336492,-2230,-452,-564,4112,311,100606
12:18:40.679,17716,-947.265625,227.5390625,-28.3203125,0.17715091907742447,0.020769418098732523,-0.02809980095710871,-2227,-450,-555,4112,311,100606
12:18:40.699,17717,-953.125,220.703125,-25.390625,0.17592918860102844,0.009773843811168246,-0.039095375244672985,-2226,-448,-548,4112,311,100606
12:18:40.709,17718,-944.3359375,214.84375,-28.3203125,0.17592918860102844,0.010995574287564277,-0.06597344572538566,-2226,-448,-546,4112,311,100606
12:18:40.730,17719,-952.1484375,210.9375,-21.484375,0.1270599695451872,0.014660765716752368,-0.04642575810304917,-2228,-450,-546,4112,311,100606
12:18:40.750,17720,-962.890625,219.7265625,-24.4140625,0.12583823906879116,0.013439035240356337,-0.026878070480712675,-2219,-447,-554,4112,311,100606
12:18:40.771,17721,-967.7734375,225.5859375,-18.5546875,0.14416419621473164,0.009773843811168246,0.0024434609527920616,-2213,-438,-564,4112,311,100606
12:18:40.781,17722,-959.9609375,226.5625,-19.53125,0.15149457907310784,0.003665191429188092,0.023212879051524585,-2231,-445,-549,4112,311,100606
12:18:40.821,17723,-957.03125,207.03125,-33.203125,0.11362093430483088,0.0024434609527920616,0.021991148575128554,-2225,-444,-557,4112,311,100606
12:18:40.842,17724,-950.1953125,213.8671875,-37.109375,0.058643062867009474,0.01832595714594046,0.008552113334772215,-2227,-447,-554,4112,311,100606
12:18:40.862,17725,-955.078125,206.0546875,-33.203125,-0.009773843811168246,0.04153883619746505,-0.004886921905584123,-2228,-450,-552,4112,311,100606
12:18:40.873,17726,-958.984375,209.9609375,-18.5546875,-0.07208209810736582,0.05619960191421742,-0.003665191429188092,-2227,-448,-550,4112,311,100606
12:18:40.893,17727,-951.171875,221.6796875,-15.625,-0.05375614096142535,0.048869219055841226,0.02809980095710871,-2218,-447,-542,4112,311,100606
12:18:40.914,17728,-951.171875,232.421875,-30.2734375,0.026878070480712675,0.023212879051524585,0.03543018381548489,-2222,-450,-562,4112,311,100606
12:18:40.934,17729,-956.0546875,224.609375,-24.4140625,0.10018189906447451,-0.0024434609527920616,0.029321531433504737,-2227,-449,-558,4112,311,100606
12:18:40.955,17730,-954.1015625,211.9140625,-19.53125,0.1111774733520388,-0.012217304763960306,0.019547687622336492,-2226,-445,-542,4112,311,100606
12:18:40.965,17731,-955.078125,205.078125,-21.484375,0.07208209810736582,-0.010995574287564277,0.003665191429188092,-2228,-448,-564,4112,311,100606
12:18:40.985,17732,-949.21875,216.796875,-21.484375,0.024434609527920613,0.004886921905584123,-0.013439035240356337,-2224,-445,-556,4112,311,100606
12:18:41.6,17733,-947.265625,228.515625,-21.484375,0.01710422666954443,0.013439035240356337,-0.024434609527920613,-2226,-442,-551,4112,311,100606
12:18:41.26,17734,-949.21875,226.5625,-28.3203125,0.04276056667386108,0.010995574287564277,-0.024434609527920613,-2213,-440,-549,4112,311,100606
12:18:41.36,17735,-954.1015625,223.6328125,-27.34375,0.06597344572538566,-0.009773843811168246,0.021991148575128554,-2227,-442,-558,4112,311,100606
12:18:41.57,17736,-963.8671875,211.9140625,-29.296875,0.05375614096142535,-0.014660765716752368,0.039095375244672985,-2228,-443,-550,4112,311,100606
12:18:41.98,17737,-961.9140625,208.0078125,-28.3203125,-0.010995574287564277,-0.008552113334772215,0.02809980095710871,-2219,-440,-555,4112,311,100606
12:18:41.119,17738,-958.984375,221.6796875,-24.4140625,-0.05619960191421742,0.0,0.021991148575128554,-2224,-438,-562,4112,311,100606
12:18:41.129,17739,-954.1015625,232.421875,-21.484375,-0.04642575810304917,0.009773843811168246,0.020769418098732523,-2224,-445,-559,4112,311,100606
12:18:41.149,17740,-958.0078125,228.515625,-24.4140625,0.0012217304763960308,0.006108652381980153,0.01710422666954443,-2223,-442,-555,4112,311,100606
12:18:41.170,17741,-955.078125,211.9140625,-32.2265625,0.029321531433504737,-0.0024434609527920616,0.019547687622336492,-2205,-436,-557,4112,311,100606
12:18:41.190,17742,-955.078125,217.7734375,-27.34375,0.0158824961931484,-0.004886921905584123,0.0012217304763960308,-2221,-440,-548,4112,311,100606
12:18:41.200,17743,-952.1484375,218.75,-27.34375,0.006108652381980153,-0.008552113334772215,-0.026878070480712675,-2221,-441,-549,4112,311,100606
12:18:41.241,17744,-959.9609375,223.6328125,-24.4140625,0.006108652381980153,-0.003665191429188092,-0.026878070480712675,-2221,-443,-552,4112,311,100606
12:18:41.261,17745,-959.9609375,218.75,-25.390625,0.01710422666954443,-0.0024434609527920616,-0.0317649923862968,-2223,-442,-557,4112,311,100606
12:18:41.282,17746,-957.03125,218.75,-34.1796875,0.0317649923862968,0.0,-0.03543018381548489,-2224,-449,-557,4112,311,100606
12:18:41.292,17747,-955.078125,225.5859375,-29.296875,0.04153883619746505,-0.008552113334772215,-0.03543018381548489,-2220,-446,-555,4112,311,100606
12:18:41.312,17748,-953.125,234.375,-31.25,0.07330382858376185,-0.012217304763960306,-0.04153883619746505,-2215,-439,-567,4112,311,100606
12:18:41.333,17749,-944.3359375,221.6796875,-34.1796875,0.10018189906447451,-0.0158824961931484,-0.0317649923862968,-2218,-447,-558,4112,311,100606
12:18:41.353,17750,-949.21875,211.9140625,-41.015625,0.08185594191853407,-0.009773843811168246,-0.025656340004316647,-2223,-443,-563,4112,311,100606
12:18:41.373,17751,-956.0546875,217.7734375,-37.109375,0.03665191429188092,-0.007330382858376184,-0.03420845333908886,-2221,-443,-563,4112,311,100606
12:18:41.384,17752,-959.9609375,220.703125,-36.1328125,0.007330382858376184,0.008552113334772215,-0.05375614096142535,-2223,-438,-553,4124,312,100608
12:18:41.404,17753,-968.75,231.4453125,-34.1796875,0.019547687622336492,0.0158824961931484,-0.04642575810304917,-2219,-444,-567,4124,312,100608
12:18:41.425,17754,-963.8671875,233.3984375,-31.25,0.04520402762665313,0.008552113334772215,-0.0317649923862968,-2222,-442,-563,4124,312,100608
12:18:41.445,17755,-963.8671875,221.6796875,-41.9921875,0.051312680008633295,0.0,-0.006108652381980153,-2207,-440,-558,4124,312,100608
12:18:41.455,17756,-957.03125,225.5859375,-41.9921875,0.039095375244672985,0.004886921905584123,-0.010995574287564277,-2226,-441,-561,4124,312,100608
12:18:41.475,17757,-955.078125,224.609375,-36.1328125,0.02809980095710871,0.010995574287564277,-0.0158824961931484,-2227,-441,-563,4124,312,100608
12:18:41.516,17758,-945.3125,226.5625,-33.203125,0.039095375244672985,0.020769418098732523,-0.023212879051524585,-2223,-446,-561,4124,312,100608
12:18:41.537,17759,-951.171875,228.515625,-37.109375,0.03787364476827696,0.026878070480712675,-0.0317649923862968,-2226,-446,-564,4124,312,100608
12:18:41.547,17760,-955.078125,220.703125,-27.34375,0.023212879051524585,0.04031710572106901,-0.008552113334772215,-2222,-443,-552,4124,312,100608
12:18:41.568,17761,-948.2421875,216.796875,-23.4375,-0.009773843811168246,0.03543018381548489,-0.0012217304763960308,-2221,-447,-562,4124,312,100608
12:18:41.588,17762,-953.125,224.609375,-23.4375,-0.013439035240356337,0.02809980095710871,0.0,-2209,-439,-557,4124,312,100608
12:18:41.609,17763,-958.984375,219.7265625,-15.625,-0.009773843811168246,0.03420845333908886,-0.008552113334772215,-2220,-444,-556,4124,312,100608
12:18:41.619,17764,-954.1015625,222.65625,-18.5546875,-0.008552113334772215,0.0317649923862968,-0.025656340004316647,-2222,-444,-565,4124,312,100608
12:18:41.660,17765,-949.21875,224.609375,-21.484375,0.003665191429188092,0.02809980095710871,-0.020769418098732523,-2218,-441,-560,4124,312,100608
12:18:41.681,17766,-952.1484375,216.796875,-21.484375,0.01710422666954443,0.012217304763960306,-0.006108652381980153,-2222,-442,-556,4124,312,100608
12:18:41.701,17767,-958.984375,211.9140625,-25.390625,0.020769418098732523,0.007330382858376184,-0.0012217304763960308,-2225,-444,-553,4124,312,100608
12:18:41.712,17768,-963.8671875,213.8671875,-18.5546875,-0.012217304763960306,0.003665191429188092,-0.014660765716752368,-2228,-444,-552,4124,312,100608
12:18:41.732,17769,-959.9609375,223.6328125,-18.5546875,0.009773843811168246,0.0024434609527920616,-0.025656340004316647,-2211,-438,-564,4124,312,100608
12:18:41.753,17770,-958.984375,220.703125,-18.5546875,0.03420845333908886,0.0,-0.023212879051524585,-2223,-446,-560,4124,312,100608
12:18:41.773,17771,-955.078125,209.9609375,-28.3203125,0.03298672286269283,-0.003665191429188092,-0.021991148575128554,-2226,-444,-555,4124,312,100608
12:18:41.783,17772,-949.21875,208.0078125,-29.296875,0.0158824961931484,-0.012217304763960306,-0.020769418098732523,-2224,-443,-555,4124,312,100608
12:18:41.804,17773,-953.125,209.9609375,-31.25,0.010995574287564277,-0.009773843811168246,-0.021991148575128554,-2224,-448,-557,4124,312,100608
12:18:41.824,17774,-956.0546875,209.9609375,-26.3671875,0.0158824961931484,-0.004886921905584123,-0.0317649923862968,-2220,-445,-552,4124,312,100608
12:18:41.845,17775,-956.0546875,207.03125,-30.2734375,0.007330382858376184,0.006108652381980153,-0.03298672286269283,-2222,-446,-546,4124,312,100608
12:18:41.865,17776,-961.9140625,212.890625,-31.25,0.003665191429188092,0.003665191429188092,-0.020769418098732523,-2210,-443,-553,4124,312,100608
12:18:41.875,17777,-959.9609375,210.9375,-31.25,-0.004886921905584123,-0.0012217304763960308,-0.020769418098732523,-2222,-441,-563,4124,312,100608
12:18:41.896,17778,-955.078125,208.984375,-36.1328125,-0.004886921905584123,-0.004886921905584123,-0.024434609527920613,-2225,-443,-559,4124,312,100608
12:18:41.936,17779,-953.125,216.796875,-38.0859375,-0.009773843811168246,0.0024434609527920616,-0.03054326190990077,-2218,-441,-560,4124,312,100608
12:18:41.957,17780,-958.0078125,213.8671875,-30.2734375,0.008552113334772215,0.007330382858376184,-0.029321531433504737,-2221,-444,-551,4124,312,100608
12:18:41.967,17781,-952.1484375,205.078125,-31.25,0.0024434609527920616,0.013439035240356337,-0.024434609527920613,-2219,-444,-559,4124,312,100608
12:18:41.987,17782,-958.0078125,202.1484375,-32.2265625,-0.03543018381548489,0.010995574287564277,-0.023212879051524585,-2221,-445,-563,4124,312,100608
12:18:42.8,17783,-968.75,211.9140625,-36.1328125,-0.05742133239061345,0.020769418098732523,-0.04031710572106901,-2223,-447,-555,4124,312,100608
12:18:42.28,17784,-969.7265625,222.65625,-31.25,-0.023212879051524585,0.009773843811168246,-0.05619960191421742,-2212,-443,-564,4124,312,100608
12:18:42.38,17785,-969.7265625,220.703125,-31.25,0.0671951762017817,0.01832595714594046,-0.07086036763096978,-2222,-451,-550,4124,312,100608
12:18:42.79,17786,-965.8203125,209.9609375,-30.2734375,0.03787364476827696,0.01710422666954443,-0.05497787143782139,-2222,-451,-566,4124,312,100608
12:18:42.99,17787,-957.03125,206.0546875,-34.1796875,-0.007330382858376184,0.026878070480712675,-0.03543018381548489,-2220,-449,-554,4124,312,100608
12:18:42.120,17788,-946.2890625,208.984375,-39.0625,-0.0635299847725936,0.02809980095710871,-0.03543018381548489,-2222,-451,-553,4124,312,100608
12:18:42.130,17789,-951.171875,218.75,-36.1328125,-0.05497787143782139,0.03543018381548489,-0.03420845333908886,-2223,-447,-557,4124,312,100608
12:18:42.150,17790,-953.125,221.6796875,-26.3671875,-0.013439035240356337,0.0317649923862968,-0.04031710572106901,-2223,-444,-550,4124,312,100608
12:18:42.171,17791,-953.125,216.796875,-25.390625,0.013439035240356337,0.024434609527920613,-0.029321531433504737,-2226,-450,-563,4124,312,100608
12:18:42.191,17792,-953.125,209.9609375,-28.3203125,0.008552113334772215,0.029321531433504737,-0.008552113334772215,-2221,-452,-557,4124,312,100608
12:18:42.222,17793,-957.03125,208.984375,-25.390625,-0.04031710572106901,0.024434609527920613,-0.01832595714594046,-2213,-446,-552,4124,312,100608
12:18:42.242,17794,-955.078125,214.84375,-21.484375,-0.03787364476827696,0.02809980095710871,-0.03665191429188092,-2224,-447,-555,4124,312,100608
12:18:42.263,17795,-959.9609375,223.6328125,-20.5078125,-0.0012217304763960308,0.023212879051524585,-0.05009094953223726,-2222,-451,-568,4124,312,100608
12:18:42.283,17796,-956.0546875,223.6328125,-22.4609375,0.029321531433504737,0.0158824961931484,-0.025656340004316647,-2221,-453,-559,4124,312,100608
12:18:42.293,17797,-954.1015625,210.9375,-22.4609375,0.03665191429188092,0.009773843811168246,-0.010995574287564277,-2209,-450,-556,4124,312,100608
12:18:42.313,17798,-953.125,207.03125,-25.390625,0.004886921905584123,0.012217304763960306,0.004886921905584123,-2225,-454,-563,4124,312,100608
12:18:42.334,17799,-953.125,214.84375,-26.3671875,-0.014660765716752368,0.003665191429188092,-0.010995574287564277,-2224,-453,-563,4124,312,100608
12:18:42.354,17800,-952.1484375,221.6796875,-27.34375,0.003665191429188092,-0.004886921905584123,-0.020769418098732523,-2221,-453,-557,4124,312,100608
12:18:42.375,17801,-954.1015625,211.9140625,-26.3671875,0.03054326190990077,0.0024434609527920616,-0.009773843811168246,-2221,-453,-565,4124,312,100608
12:18:42.385,17802,-959.9609375,210.9375,-26.3671875,0.03665191429188092,0.0012217304763960308,-0.009773843811168246,-2225,-450,-562,4112,311,100609
12:18:42.406,17803,-959.9609375,220.703125,-30.2734375,0.04276056667386108,-0.003665191429188092,-0.01710422666954443,-2222,-453,-558,4112,311,100609
12:18:42.426,17804,-958.0078125,210.9375,-35.15625,0.0635299847725936,-0.008552113334772215,-0.009773843811168246,-2204,-451,-558,4112,311,100609
12:18:42.447,17805,-959.9609375,205.078125,-28.3203125,0.05009094953223726,0.0,-0.007330382858376184,-2227,-450,-558,4112,311,100609
12:18:42.457,17806,-959.9609375,207.03125,-32.2265625,0.01710422666954443,-0.0012217304763960308,0.003665191429188092,-2222,-447,-552,4112,311,100609
12:18:42.498,17807,-958.0078125,208.984375,-34.1796875,-0.004886921905584123,0.009773843811168246,0.0158824961931484,-2223,-448,-566,4112,311,100609
12:18:42.519,17808,-956.0546875,206.0546875,-29.296875,-0.007330382858376184,0.009773843811168246,0.026878070480712675,-2224,-450,-558,4112,311,100609
12:18:42.539,17809,-957.03125,200.1953125,-25.390625,-0.0024434609527920616,0.010995574287564277,0.03054326190990077,-2222,-451,-556,4112,311,100609
12:18:42.549,17810,-956.0546875,200.1953125,-25.390625,-0.0024434609527920616,0.013439035240356337,0.014660765716752368,-2222,-452,-545,4112,311,100609
12:18:42.570,17811,-956.0546875,203.125,-22.4609375,0.025656340004316647,0.009773843811168246,0.004886921905584123,-2208,-439,-552,4112,311,100609
12:18:42.591,17812,-961.9140625,203.125,-25.390625,0.03665191429188092,0.009773843811168246,-0.003665191429188092,-2220,-449,-558,4112,311,100609
12:18:42.611,17813,-962.890625,196.2890625,-23.4375,0.025656340004316647,0.007330382858376184,0.006108652381980153,-2221,-446,-558,4112,311,100609
12:18:42.642,17814,-958.0078125,199.21875,-19.53125,-0.012217304763960306,0.0158824961931484,0.008552113334772215,-2219,-444,-562,4112,311,100609
12:18:42.662,17815,-957.03125,197.265625,-28.3203125,-0.029321531433504737,0.008552113334772215,0.009773843811168246,-2212,-441,-553,4112,311,100609
12:18:42.682,17816,-957.03125,202.1484375,-24.4140625,-0.029321531433504737,0.012217304763960306,0.003665191429188092,-2227,-446,-564,4112,311,100609
12:18:42.703,17817,-954.1015625,205.078125,-21.484375,-0.007330382858376184,0.01710422666954443,-0.019547687622336492,-2221,-446,-555,4112,311,100609
12:18:42.713,17818,-955.078125,200.1953125,-22.4609375,0.020769418098732523,0.003665191429188092,-0.0158824961931484,-2225,-442,-560,4112,311,100609
12:18:42.733,17819,-957.03125,193.359375,-21.484375,-0.0012217304763960308,0.006108652381980153,-0.013439035240356337,-2222,-447,-549,4112,311,100609
12:18:42.754,17820,-961.9140625,202.1484375,-24.4140625,-0.03787364476827696,0.010995574287564277,-0.0158824961931484,-2224,-447,-568,4112,311,100609
12:18:42.774,17821,-962.890625,206.0546875,-21.484375,-0.023212879051524585,0.0024434609527920616,-0.0317649923862968,-2214,-443,-568,4112,311,100609
12:18:42.794,17822,-959.9609375,208.0078125,-23.4375,-0.003665191429188092,0.012217304763960306,-0.03543018381548489,-2222,-448,-573,4112,311,100609
12:18:42.804,17823,-956.0546875,208.0078125,-28.3203125,0.008552113334772215,0.006108652381980153,-0.0476474885794452,-2226,-449,-563,4112,311,100609
12:18:42.825,17824,-953.125,206.0546875,-30.2734375,0.0024434609527920616,0.0158824961931484,-0.03420845333908886,-2223,-448,-557,4112,311,100609
12:18:42.845,17825,-955.078125,209.9609375,-26.3671875,-0.009773843811168246,0.010995574287564277,-0.025656340004316647,-2215,-443,-562,4112,311,100609
12:18:42.865,17826,-957.03125,211.9140625,-24.4140625,-0.012217304763960306,0.012217304763960306,-0.013439035240356337,-2224,-447,-558,4112,311,100609
12:18:42.886,17827,-957.03125,212.890625,-25.390625,-0.0012217304763960308,0.003665191429188092,-0.004886921905584123,-2227,-448,-568,4112,311,100609
12:18:42.916,17828,-959.9609375,220.703125,-23.4375,0.008552113334772215,-0.0012217304763960308,0.012217304763960306,-2222,-452,-572,4112,311,100609
12:18:42.937,17829,-958.984375,224.609375,-21.484375,0.023212879051524585,-0.007330382858376184,0.026878070480712675,-2219,-445,-554,4112,311,100609
12:18:42.957,17830,-961.9140625,237.3046875,-19.53125,0.052534410485029326,-0.021991148575128554,0.05009094953223726,-2225,-449,-554,4112,311,100609
12:18:42.967,17831,-966.796875,241.2109375,-19.53125,0.08918632477691024,-0.03298672286269283,0.07208209810736582,-2222,-444,-555,4112,311,100609
12:18:42.988,17832,-959.9609375,218.75,-16.6015625,0.10873401239924674,-0.05009094953223726,0.08796459430051422,-2216,-445,-572,4112,311,100609
12:18:43.8,17833,-958.0078125,224.609375,-16.6015625,0.0867428638241182,-0.05375614096142535,0.07086036763096978,-2223,-439,-566,4112,311,100609
12:18:43.29,17834,-962.890625,231.4453125,-4.8828125,0.10506882097005865,-0.04398229715025711,0.025656340004316647,-2218,-445,-564,4112,311,100609
12:18:43.59,17835,-953.125,209.9609375,-5.859375,0.1466076571675237,-0.03543018381548489,0.023212879051524585,-2220,-445,-567,4112,311,100609
12:18:43.80,17836,-953.125,205.078125,-13.671875,0.09285151620609834,-0.04153883619746505,0.03543018381548489,-2223,-443,-561,4112,311,100609
