Timestamp,SampleNr,AccX [mg],AccY [mg],AccZ [mg],GyrX [rad/s],GyrY [rad/s],GyrZ [rad/s],MagX [mGs],MagY [mGs],-MagZ [mGs],Battery [mV],Temperature [0.1C],Pressure[Pa]
12:7:3.794,21216,200.1953125,139.6484375,-970.703125,-0.019547687622336492,0.020769418098732523,0.004886921905584123,-1829,-457,-17,4130,315,100603
12:7:3.804,21217,200.1953125,136.71875,-977.5390625,-0.03054326190990077,0.014660765716752368,-0.0012217304763960308,-1831,-453,-15,4130,315,100603
12:7:3.825,21218,203.125,141.6015625,-987.3046875,-0.006108652381980153,0.012217304763960306,-0.014660765716752368,-1832,-458,-14,4130,315,100603
12:7:3.835,21219,203.125,138.671875,-982.421875,0.009773843811168246,0.0,-0.03054326190990077,-1833,-458,-28,4130,315,100603
12:7:3.855,21220,203.125,132.8125,-986.328125,0.006108652381980153,0.0,-0.0317649923862968,-1831,-460,-12,4130,315,100603
12:7:3.876,21221,205.078125,130.859375,-987.3046875,-0.010995574287564277,0.008552113334772215,-0.04276056667386108,-1824,-456,-9,4130,315,100603
12:7:3.896,21222,198.2421875,149.4140625,-988.28125,0.0012217304763960308,0.007330382858376184,-0.03665191429188092,-1829,-456,-27,4130,315,100603
12:7:3.917,21223,198.2421875,142.578125,-993.1640625,0.01832595714594046,0.0024434609527920616,-0.05497787143782139,-1818,-452,-18,4130,315,100603
12:7:3.927,21224,196.2890625,136.71875,-987.3046875,-0.013439035240356337,0.012217304763960306,-0.05619960191421742,-1827,-451,-18,4130,315,100603
12:7:3.948,21225,197.265625,150.390625,-979.4921875,-0.025656340004316647,0.007330382858376184,-0.05497787143782139,-1828,-457,-20,4130,315,100603
12:7:3.968,21226,204.1015625,165.0390625,-981.4453125,0.019547687622336492,-0.0024434609527920616,-0.04642575810304917,-1828,-458,-20,4130,315,100603
12:7:3.989,21227,198.2421875,154.296875,-979.4921875,0.05009094953223726,-0.007330382858376184,-0.039095375244672985,-1817,-451,-14,4130,315,100603
12:7:3.999,21228,204.1015625,144.53125,-972.65625,0.006108652381980153,-0.003665191429188092,-0.0317649923862968,-1827,-456,-20,4130,315,100603
12:7:4.19,21229,201.171875,156.25,-971.6796875,-0.01832595714594046,-0.0024434609527920616,-0.03543018381548489,-1825,-458,-32,4130,315,100603
12:7:4.40,21230,201.171875,162.109375,-982.421875,-0.0024434609527920616,-0.009773843811168246,-0.019547687622336492,-1826,-453,-26,4130,315,100603
12:7:4.61,21231,202.1484375,160.15625,-986.328125,0.003665191429188092,-0.007330382858376184,-0.03787364476827696,-1827,-460,-22,4130,315,100603
12:7:4.81,21232,206.0546875,159.1796875,-995.1171875,-0.003665191429188092,-0.009773843811168246,-0.03420845333908886,-1833,-457,-15,4130,315,100603
12:7:4.92,21233,198.2421875,164.0625,-998.046875,0.007330382858376184,-0.004886921905584123,-0.014660765716752368,-1829,-453,-14,4130,315,100603
12:7:4.112,21234,196.2890625,163.0859375,-998.046875,0.019547687622336492,-0.006108652381980153,0.003665191429188092,-1826,-451,-6,4130,315,100603
12:7:4.132,21235,197.265625,156.25,-995.1171875,0.029321531433504737,0.0012217304763960308,0.007330382858376184,-1829,-459,-14,4130,315,100603
12:7:4.153,21236,196.2890625,145.5078125,-1001.953125,0.0158824961931484,0.008552113334772215,0.006108652381980153,-1823,-456,-21,4130,315,100603
12:7:4.163,21237,198.2421875,143.5546875,-1003.90625,0.023212879051524585,0.009773843811168246,0.004886921905584123,-1830,-461,-24,4130,315,100603
12:7:4.183,21238,193.359375,136.71875,-1002.9296875,0.03665191429188092,0.003665191429188092,0.0,-1831,-455,-25,4130,315,100603
12:7:4.204,21239,191.40625,124.0234375,-991.2109375,0.01832595714594046,0.009773843811168246,0.007330382858376184,-1828,-455,-20,4130,315,100603
12:7:4.224,21240,193.359375,134.765625,-988.28125,-0.014660765716752368,0.025656340004316647,-0.010995574287564277,-1827,-455,-19,4130,315,100603
12:7:4.245,21241,198.2421875,143.5546875,-992.1875,0.03665191429188092,0.025656340004316647,-0.020769418098732523,-1808,-448,-20,4130,315,100603
12:7:4.255,21242,200.1953125,130.859375,-988.28125,0.01832595714594046,0.026878070480712675,-0.0317649923862968,-1828,-452,-16,4130,315,100603
12:7:4.275,21243,196.2890625,128.90625,-974.609375,-0.029321531433504737,0.01832595714594046,-0.025656340004316647,-1826,-454,-15,4130,315,100603
12:7:4.296,21244,201.171875,145.5078125,-980.46875,-0.014660765716752368,0.013439035240356337,-0.029321531433504737,-1826,-456,-22,4130,315,100603
12:7:4.316,21245,197.265625,156.25,-976.5625,0.025656340004316647,0.010995574287564277,-0.03298672286269283,-1828,-454,-11,4130,315,100603
12:7:4.336,21246,202.1484375,137.6953125,-967.7734375,0.020769418098732523,0.003665191429188092,-0.021991148575128554,-1828,-457,-12,4130,315,100603
12:7:4.347,21247,201.171875,132.8125,-969.7265625,-0.01710422666954443,0.006108652381980153,-0.010995574287564277,-1831,-457,-19,4130,315,100603
12:7:4.367,21248,200.1953125,144.53125,-980.46875,-0.010995574287564277,-0.006108652381980153,-0.021991148575128554,-1827,-455,-24,4130,315,100603
12:7:4.388,21249,200.1953125,143.5546875,-977.5390625,0.04153883619746505,-0.01832595714594046,-0.02809980095710871,-1831,-459,-23,4130,315,100603
12:7:4.409,21250,197.265625,127.9296875,-974.609375,-0.0024434609527920616,-0.0158824961931484,-0.021991148575128554,-1830,-459,-16,4130,315,100603
12:7:4.419,21251,199.21875,137.6953125,-976.5625,-0.029321531433504737,-0.021991148575128554,-0.0317649923862968,-1809,-454,-6,4130,315,100603
12:7:4.439,21252,198.2421875,154.296875,-990.234375,-0.007330382858376184,-0.01832595714594046,-0.03420845333908886,-1834,-459,-5,4130,315,100603
12:7:4.460,21253,192.3828125,146.484375,-994.140625,0.009773843811168246,-0.03298672286269283,-0.026878070480712675,-1831,-461,-18,4130,315,100603
12:7:4.480,21254,190.4296875,144.53125,-998.046875,0.0012217304763960308,-0.029321531433504737,-0.04031710572106901,-1832,-464,-16,4130,315,100603
12:7:4.491,21255,190.4296875,153.3203125,-1003.90625,0.014660765716752368,-0.0158824961931484,-0.024434609527920613,-1811,-448,-19,4130,315,100603
12:7:4.512,21256,194.3359375,139.6484375,-1013.671875,0.03543018381548489,0.003665191429188092,-0.01832595714594046,-1832,-460,-21,4130,315,100603
12:7:4.532,21257,194.3359375,134.765625,-1009.765625,-0.0012217304763960308,0.010995574287564277,-0.008552113334772215,-1834,-459,-27,4130,315,100603
12:7:4.553,21258,193.359375,145.5078125,-998.046875,-0.009773843811168246,0.006108652381980153,-0.02809980095710871,-1832,-456,-17,4130,315,100603
12:7:4.563,21259,187.5,160.15625,-1002.9296875,0.05375614096142535,0.0012217304763960308,-0.03787364476827696,-1830,-458,-22,4130,315,100603
12:7:4.583,21260,187.5,138.671875,-997.0703125,0.06841690667817772,0.007330382858376184,-0.03665191429188092,-1831,-459,-18,4130,315,100603
12:7:4.604,21261,188.4765625,124.0234375,-999.0234375,-0.006108652381980153,0.013439035240356337,-0.03420845333908886,-1832,-457,-21,4130,315,100603
12:7:4.624,21262,191.40625,142.578125,-1000.0,-0.03787364476827696,0.024434609527920613,-0.03420845333908886,-1820,-453,-14,4130,315,100603
12:7:4.644,21263,195.3125,153.3203125,-996.09375,0.003665191429188092,0.021991148575128554,-0.0317649923862968,-1829,-459,-20,4130,315,100603
12:7:4.655,21264,196.2890625,146.484375,-991.2109375,0.008552113334772215,0.03054326190990077,-0.03054326190990077,-1827,-457,-8,4130,315,100603
12:7:4.675,21265,191.40625,144.53125,-990.234375,0.0024434609527920616,0.02809980095710871,-0.03665191429188092,-1830,-458,-14,4130,315,100603
12:7:4.696,21266,191.40625,153.3203125,-988.28125,0.007330382858376184,0.025656340004316647,-0.0158824961931484,-1834,-462,-13,4130,315,100603
12:7:4.716,21267,193.359375,148.4375,-980.46875,0.007330382858376184,0.02809980095710871,-0.021991148575128554,-1834,-460,-20,4130,315,100603
12:7:4.737,21268,192.3828125,146.484375,-974.609375,-0.0024434609527920616,0.019547687622336492,-0.013439035240356337,-1832,-455,-18,4130,315,100603
12:7:4.747,21269,195.3125,148.4375,-974.609375,-0.013439035240356337,0.010995574287564277,-0.014660765716752368,-1819,-457,-22,4130,315,100603
12:7:4.809,21270,203.125,151.3671875,-979.4921875,0.01710422666954443,0.009773843811168246,-0.008552113334772215,-1829,-456,-24,4130,315,100603
12:7:4.820,21271,192.3828125,153.3203125,-973.6328125,0.04031710572106901,-0.003665191429188092,-0.003665191429188092,-1831,-460,-21,4130,315,100603
12:7:4.840,21272,189.453125,136.71875,-970.703125,0.019547687622336492,0.0,-0.007330382858376184,-1831,-457,-25,4130,315,100603
12:7:4.861,21273,197.265625,139.6484375,-970.703125,-0.019547687622336492,0.006108652381980153,0.0024434609527920616,-1830,-461,-27,4130,315,100603
12:7:4.881,21274,195.3125,152.34375,-984.375,0.010995574287564277,-0.01832595714594046,-0.004886921905584123,-1833,-460,-14,4130,315,100603
12:7:4.902,21275,198.2421875,157.2265625,-993.1640625,0.0671951762017817,-0.024434609527920613,-0.01710422666954443,-1829,-459,-19,4130,315,100603
12:7:4.912,21276,191.40625,151.3671875,-1003.90625,0.08429940287132612,-0.01710422666954443,-0.014660765716752368,-1827,-463,-13,4130,315,100603
12:7:4.932,21277,189.453125,131.8359375,-1007.8125,0.03787364476827696,-0.004886921905584123,-0.004886921905584123,-1829,-460,-17,4130,315,100608
12:7:4.952,21278,187.5,138.671875,-1014.6484375,-0.010995574287564277,0.006108652381980153,-0.004886921905584123,-1830,-455,-27,4130,315,100608
12:7:4.972,21279,184.5703125,149.4140625,-1016.6015625,0.023212879051524585,0.014660765716752368,0.0,-1821,-461,-16,4130,315,100608
12:7:4.983,21280,185.546875,136.71875,-1012.6953125,0.0476474885794452,0.01832595714594046,0.009773843811168246,-1834,-459,-13,4130,315,100608
12:7:5.3,21281,189.453125,125.9765625,-997.0703125,0.029321531433504737,0.03054326190990077,0.003665191429188092,-1833,-465,-14,4130,315,100608
12:7:5.23,21282,193.359375,129.8828125,-998.046875,0.03543018381548489,0.025656340004316647,-0.0012217304763960308,-1830,-468,-12,4130,315,100608
12:7:5.43,21283,192.3828125,130.859375,-993.1640625,0.05009094953223726,0.023212879051524585,-0.008552113334772215,-1820,-468,-9,4130,315,100608
12:7:5.65,21284,200.1953125,125.0,-986.328125,0.023212879051524585,0.019547687622336492,-0.020769418098732523,-1833,-470,-17,4130,315,100608
12:7:5.75,21285,189.453125,134.765625,-980.46875,0.019547687622336492,0.025656340004316647,-0.01832595714594046,-1829,-464,-17,4130,315,100608
12:7:5.220,21286,181.640625,138.671875,-960.9375,0.014660765716752368,0.023212879051524585,-0.0012217304763960308,-1827,-466,-15,4130,315,100608
12:7:5.241,21287,189.453125,135.7421875,-942.3828125,0.010995574287564277,0.012217304763960306,0.014660765716752368,-1833,-470,-21,4130,315,100608
12:7:5.262,21288,204.1015625,135.7421875,-953.125,0.0024434609527920616,-0.020769418098732523,0.023212879051524585,-1827,-469,-12,4130,315,100608
12:7:5.282,21289,201.171875,143.5546875,-968.75,0.04520402762665313,-0.04642575810304917,0.02809980095710871,-1828,-467,-17,4130,315,100608
12:7:5.303,21290,194.3359375,125.9765625,-979.4921875,0.10140362954087055,-0.06597344572538566,0.004886921905584123,-1828,-467,-15,4130,315,100608
12:7:5.313,21291,185.546875,108.3984375,-982.421875,0.03787364476827696,-0.039095375244672985,-0.008552113334772215,-1828,-467,-13,4130,315,100608
12:7:5.333,21292,187.5,95.703125,-991.2109375,-0.03787364476827696,-0.013439035240356337,-0.010995574287564277,-1829,-469,-24,4130,315,100608
12:7:5.354,21293,193.359375,110.3515625,-1000.0,-0.05619960191421742,-0.014660765716752368,-0.012217304763960306,-1829,-470,-10,4130,315,100608
12:7:5.375,21294,186.5234375,126.953125,-1002.9296875,-0.02809980095710871,-0.019547687622336492,-0.024434609527920613,-1833,-467,-18,4130,315,100608
12:7:5.385,21295,190.4296875,138.671875,-1018.5546875,0.04153883619746505,-0.03298672286269283,-0.03787364476827696,-1837,-471,-11,4130,315,100608
12:7:5.405,21296,186.5234375,124.0234375,-1018.5546875,0.05742133239061345,-0.029321531433504737,-0.052534410485029326,-1835,-468,-25,4130,315,100608
12:7:5.426,21297,181.640625,117.1875,-1012.6953125,0.008552113334772215,-0.01832595714594046,-0.04153883619746505,-1809,-458,-8,4130,315,100608
12:7:5.446,21298,180.6640625,125.9765625,-1016.6015625,-0.03054326190990077,0.009773843811168246,-0.025656340004316647,-1834,-466,0,4130,315,100608
12:7:5.467,21299,176.7578125,135.7421875,-1006.8359375,-0.004886921905584123,0.019547687622336492,-0.024434609527920613,-1837,-469,-16,4130,315,100608
12:7:5.477,21300,188.4765625,138.671875,-997.0703125,0.03298672286269283,0.010995574287564277,-0.026878070480712675,-1830,-467,-15,4130,315,100608
12:7:5.497,21301,189.453125,126.953125,-971.6796875,0.024434609527920613,0.008552113334772215,-0.021991148575128554,-1833,-471,-18,4130,315,100608
12:7:5.518,21302,184.5703125,119.140625,-956.0546875,-0.007330382858376184,-0.0024434609527920616,-0.025656340004316647,-1837,-463,-22,4130,315,100608
12:7:5.539,21303,185.546875,131.8359375,-943.359375,-0.020769418098732523,-0.014660765716752368,-0.01710422666954443,-1835,-468,-11,4130,315,100608
12:7:5.549,21304,183.59375,125.0,-929.6875,-0.0317649923862968,-0.03543018381548489,-0.020769418098732523,-1835,-467,-17,4130,315,100608
12:7:5.570,21305,187.5,117.1875,-916.015625,-0.052534410485029326,-0.05009094953223726,-0.0024434609527920616,-1841,-466,-11,4130,315,100608
12:7:5.591,21306,187.5,116.2109375,-910.15625,-0.0476474885794452,-0.07819075048934597,-0.024434609527920613,-1838,-465,-16,4130,315,100608
12:7:5.611,21307,190.4296875,119.140625,-897.4609375,-0.014660765716752368,-0.14172073526193957,-0.03787364476827696,-1839,-467,-17,4130,315,100608
12:7:5.621,21308,184.5703125,120.1171875,-899.4140625,0.04276056667386108,-0.18570303241219668,-0.04642575810304917,-1840,-468,-8,4130,315,100608
12:7:5.641,21309,175.78125,107.421875,-903.3203125,0.05986479334340551,-0.22479840765686968,-0.06230825429619757,-1842,-467,-20,4130,315,100608
12:7:5.662,21310,175.78125,95.703125,-900.390625,0.012217304763960306,-0.2431243648028101,-0.06963863715457375,-1847,-466,-16,4130,315,100608
12:7:5.682,21311,173.828125,103.515625,-901.3671875,-0.012217304763960306,-0.2675589743307307,-0.0867428638241182,-1839,-471,-22,4130,315,100608
12:7:5.703,21312,162.109375,125.9765625,-910.15625,0.04398229715025711,-0.31520646291017596,-0.0989601685880785,-1849,-464,-21,4130,315,100608
12:7:5.713,21313,155.2734375,125.0,-902.34375,0.1356120828799594,-0.3652974124424132,-0.10140362954087055,-1857,-469,-16,4130,315,100608
12:7:5.733,21314,144.53125,117.1875,-897.4609375,0.2028072590817411,-0.41416663149825445,-0.10018189906447451,-1857,-474,-21,4130,315,100608
12:7:5.753,21315,150.390625,100.5859375,-926.7578125,0.2150245638457014,-0.4569271981721155,-0.09651670763528641,-1840,-468,-25,4130,315,100608
12:7:5.774,21316,129.8828125,93.75,-920.8984375,0.1905899543177808,-0.4825835381764321,-0.13194689145077132,-1862,-473,-15,4130,315,100608
12:7:5.784,21317,112.3046875,87.890625,-907.2265625,0.12461650859239513,-0.49113565151120436,-0.15393804002589986,-1865,-475,-10,4130,315,100608
12:7:5.804,21318,116.2109375,92.7734375,-926.7578125,0.06841690667817772,-0.515570261039125,-0.1478293876439197,-1860,-476,-22,4130,315,100608
12:7:5.825,21319,92.7734375,116.2109375,-923.828125,0.05497787143782139,-0.5485569839018178,-0.14905111812031577,-1876,-477,-18,4130,315,100608
12:7:5.846,21320,63.4765625,113.28125,-915.0390625,0.052534410485029326,-0.5754350543825305,-0.12828170002158323,-1879,-481,-24,4130,315,100608
12:7:5.867,21321,59.5703125,100.5859375,-916.9921875,0.012217304763960306,-0.5900958200992829,-0.1148426647812269,-1889,-476,-25,4130,315,100608
12:7:5.877,21322,55.6640625,91.796875,-918.9453125,-0.1038470904936626,-0.597426202957659,-0.09407324668249437,-1893,-477,-19,4130,315,100608
12:7:5.897,21323,40.0390625,99.609375,-909.1796875,-0.2101376419401173,-0.5998696639104512,-0.10629055144645469,-1897,-478,-25,4130,315,100608
12:7:5.918,21324,26.3671875,118.1640625,-916.015625,-0.238237442897226,-0.6548475353482726,-0.11362093430483088,-1908,-475,-24,4130,315,100608
12:7:5.938,21325,21.484375,126.953125,-917.96875,-0.20647245051092922,-0.7037167544041137,-0.10629055144645469,-1900,-469,-23,4130,315,100608
12:7:5.948,21326,7.8125,149.4140625,-922.8515625,-0.1148426647812269,-0.7464773210779747,-0.11606439525762292,-1920,-475,-35,4130,315,100608
12:7:5.969,21327,-32.2265625,151.3671875,-921.875,-0.058643062867009474,-0.7660250087003113,-0.1038470904936626,-1929,-481,-31,4124,315,100600
12:7:5.989,21328,-32.2265625,100.5859375,-898.4375,-0.20402898955813717,-0.7648032782239153,-0.1075122819228507,-1923,-471,-32,4124,315,100600
12:7:6.10,21329,-38.0859375,139.6484375,-889.6484375,-0.2895501229058593,-0.7806857744170637,-0.12095131716320705,-1941,-477,-36,4124,315,100600
12:7:6.30,21330,-67.3828125,205.078125,-920.8984375,-0.12461650859239513,-0.8478809506188453,-0.12217304763960309,-1946,-474,-39,4124,315,100600
12:7:6.40,21331,-76.171875,207.03125,-947.265625,0.1038470904936626,-0.9260717011081913,-0.08429940287132612,-1956,-477,-30,4124,315,100600
12:7:6.61,21332,-92.7734375,169.921875,-932.6171875,0.11239920382843484,-0.9456193887305279,-0.05742133239061345,-1950,-470,-39,4124,315,100600
12:7:6.82,21333,-150.390625,143.5546875,-909.1796875,0.012217304763960306,-0.9297368925373793,-0.06475171524898964,-1971,-482,-34,4124,315,100600
12:7:6.102,21334,-198.2421875,142.578125,-875.9765625,-0.1038470904936626,-0.910189204915043,-0.04031710572106901,-1985,-483,-47,4124,315,100600
12:7:6.113,21335,-185.546875,128.90625,-868.1640625,-0.23335052099164189,-0.9382890058721516,-0.004886921905584123,-1985,-482,-54,4124,315,100600
12:7:6.133,21336,-174.8046875,138.671875,-915.0390625,-0.3090978105281958,-1.0152580258851016,0.0317649923862968,-1997,-474,-48,4124,315,100600
12:7:6.154,21337,-195.3125,178.7109375,-919.921875,-0.2516764781375823,-1.070235897322923,0.025656340004316647,-2006,-474,-59,4124,315,100600
12:7:6.175,21338,-226.5625,172.8515625,-878.90625,-0.21258110289290938,-1.10200088970922,-0.01832595714594046,-2010,-472,-62,4124,315,100600
12:7:6.195,21339,-301.7578125,145.5078125,-845.703125,-0.3090978105281958,-1.0848966630396752,-0.02809980095710871,-2016,-468,-55,4124,315,100600
12:7:6.206,21340,-295.8984375,166.9921875,-843.75,-0.39706240482871,-1.0885618544688633,-0.02809980095710871,-2032,-466,-76,4124,315,100600
12:7:6.226,21341,-284.1796875,213.8671875,-851.5625,-0.2651155133779387,-1.1997393278209023,-0.029321531433504737,-2043,-460,-75,4124,315,100600
12:7:6.247,21342,-314.453125,246.09375,-878.90625,-0.05009094953223726,-1.271821425928268,-0.025656340004316647,-2053,-462,-85,4124,315,100600
12:7:6.267,21343,-386.71875,227.5390625,-880.859375,0.024434609527920613,-1.3011429573617728,-0.01710422666954443,-2062,-467,-87,4124,315,100600
12:7:6.278,21344,-447.265625,174.8046875,-867.1875,-0.07086036763096978,-1.2754866173574562,0.021991148575128554,-2078,-465,-97,4124,315,100600
12:7:6.299,21345,-416.015625,154.296875,-861.328125,-0.20036379812894903,-1.2791518087866443,0.020769418098732523,-2078,-464,-103,4124,315,100600
12:7:6.320,21346,-436.5234375,200.1953125,-895.5078125,-0.14905111812031577,-1.2986994964089809,-0.006108652381980153,-2082,-461,-111,4124,315,100600
12:7:6.340,21347,-460.9375,239.2578125,-917.96875,0.10873401239924674,-1.336573141177258,-0.024434609527920613,-2101,-460,-116,4124,315,100600
12:7:6.361,21348,-513.671875,202.1484375,-890.625,0.2748893571891069,-1.3463469849884258,-0.03054326190990077,-2107,-463,-132,4124,315,100600
12:7:6.371,21349,-558.59375,156.25,-880.859375,0.14172073526193957,-1.3206906449841092,-0.0012217304763960308,-2116,-467,-140,4124,315,100600
12:7:6.392,21350,-577.1484375,137.6953125,-891.6015625,0.009773843811168246,-1.2864821916450204,0.03665191429188092,-2128,-465,-158,4124,315,100600
12:7:6.413,21351,-574.21875,140.625,-865.234375,-0.05497787143782139,-1.2644910430698917,0.04153883619746505,-2131,-470,-157,4124,315,100600
12:7:6.433,21352,-576.171875,159.1796875,-860.3515625,-0.09407324668249437,-1.2534954687823276,0.021991148575128554,-2141,-464,-166,4124,315,100600
12:7:6.444,21353,-625.0,166.015625,-799.8046875,-0.10995574287564278,-1.2583823906879117,-0.012217304763960306,-2139,-466,-166,4124,315,100600
12:7:6.464,21354,-680.6640625,168.9453125,-811.5234375,-0.10140362954087055,-1.232726050683595,-0.0024434609527920616,-2147,-464,-179,4124,315,100600
12:7:6.486,21355,-659.1796875,174.8046875,-797.8515625,-0.10140362954087055,-1.230282589730803,0.0012217304763960308,-2159,-463,-198,4124,315,100600
12:7:6.506,21356,-643.5546875,181.640625,-772.4609375,-0.07819075048934597,-1.2461650859239515,-0.008552113334772215,-2159,-458,-208,4124,315,100600
12:7:6.516,21357,-692.3828125,186.5234375,-757.8125,0.051312680008633295,-1.2620475821170998,-0.012217304763960306,-2168,-467,-208,4124,315,100600
12:7:6.537,21358,-751.953125,189.453125,-798.828125,0.1392772743091475,-1.2473868164003474,0.012217304763960306,-2177,-464,-220,4124,315,100600
12:7:6.557,21359,-734.375,185.546875,-828.125,0.17226399717184035,-1.2290608592544068,0.0,-2180,-461,-228,4124,315,100600
12:7:6.578,21360,-711.9140625,165.0390625,-778.3203125,0.03298672286269283,-1.1777481792457736,-0.020769418098732523,-2180,-461,-234,4124,315,100600
12:7:6.588,21361,-751.953125,149.4140625,-697.265625,-0.16004669240788005,-1.1301006906663282,-0.01710422666954443,-2193,-463,-249,4124,315,100600
12:7:6.609,21362,-835.9375,169.921875,-683.59375,-0.2345722514680379,-1.116661655425972,0.03054326190990077,-2202,-461,-267,4124,315,100600
12:7:6.630,21363,-842.7734375,186.5234375,-739.2578125,-0.2211332162276816,-1.1264354992371404,0.08185594191853407,-2200,-460,-275,4124,315,100600
12:7:6.650,21364,-820.3125,176.7578125,-700.1953125,-0.23212879051524585,-1.1557570306706453,0.08185594191853407,-2208,-459,-280,4124,315,100600
12:7:6.660,21365,-802.734375,168.9453125,-589.84375,-0.6120869686744114,-1.1362093430483087,0.009773843811168246,-2207,-457,-278,4124,315,100600
12:7:6.681,21366,-842.7734375,168.9453125,-536.1328125,-0.3066543495754037,-1.1239920382843482,0.0024434609527920616,-2210,-457,-294,4124,315,100600
12:7:6.702,21367,-884.765625,180.6640625,-618.1640625,-0.2724458962363148,-1.1557570306706453,0.03787364476827696,-2201,-448,-300,4124,315,100600
12:7:6.722,21368,-864.2578125,169.921875,-610.3515625,-0.23945917337362205,-1.196074136391714,0.04398229715025711,-2218,-450,-315,4124,315,100600
12:7:6.742,21369,-832.03125,166.9921875,-589.84375,-0.16249015336067207,-1.2119566325848627,0.003665191429188092,-2219,-449,-333,4124,315,100600
12:7:6.773,21370,-829.1015625,208.0078125,-507.8125,-0.04520402762665313,-1.1875220230569419,-0.10506882097005865,-2224,-448,-333,4124,315,100600
12:7:6.793,21371,-881.8359375,218.75,-421.875,-0.01710422666954443,-1.160643952576229,-0.15393804002589986,-2224,-452,-343,4124,315,100600
12:7:6.814,21372,-933.59375,181.640625,-398.4375,-0.1954768762233649,-1.1826351011513576,-0.14416419621473164,-2224,-447,-357,4124,315,100600
12:7:6.834,21373,-965.8203125,152.34375,-370.1171875,-0.4398229715025711,-1.2241739373488227,-0.09162978572970232,-2227,-450,-372,4124,315,100600
12:7:6.844,21374,-949.21875,169.921875,-427.734375,-0.4642575810304917,-1.2938125745033966,-0.03420845333908886,-2222,-446,-371,4124,315,100600
12:7:6.864,21375,-913.0859375,254.8828125,-481.4453125,-0.0989601685880785,-1.336573141177258,-0.09407324668249437,-2234,-450,-395,4124,315,100600
12:7:6.885,21376,-921.875,303.7109375,-446.2890625,0.15393804002589986,-1.3023646878381687,-0.16493361431346415,-2233,-448,-404,4124,315,100600
12:7:6.905,21377,-954.1015625,273.4375,-414.0625,0.12095131716320705,-1.2241739373488227,-0.16371188383706814,-2237,-455,-416,4130,315,100605
12:7:6.916,21378,-1032.2265625,161.1328125,-430.6640625,-0.07941248096574201,-1.156978761147041,-0.07086036763096978,-2230,-451,-426,4130,315,100605
12:7:6.936,21379,-1005.859375,159.1796875,-421.875,-0.38362336958835364,-1.0983356982800316,0.06230825429619757,-2217,-448,-425,4130,315,100605
12:7:6.957,21380,-967.7734375,210.9375,-390.625,-0.6279694648675598,-1.069014166846527,0.11972958668681102,-2238,-450,-442,4130,315,100605
12:7:6.977,21381,-948.2421875,261.71875,-328.125,-0.597426202957659,-1.03114052207825,0.08185594191853407,-2235,-445,-447,4130,315,100605
12:7:6.998,21382,-974.609375,286.1328125,-306.640625,-0.32498030672134415,-0.9810495725460128,-0.06841690667817772,-2235,-447,-457,4130,315,100605
12:7:7.8,21383,-1048.828125,273.4375,-318.359375,-0.18570303241219668,-0.9419541973013398,-0.10506882097005865,-2235,-446,-460,4130,315,100605
12:7:7.49,21384,-1040.0390625,243.1640625,-287.109375,-0.17959438003021652,-0.9077457439622509,-0.05742133239061345,-2230,-449,-469,4130,315,100605
12:7:7.70,21385,-1016.6015625,227.5390625,-258.7890625,-0.32498030672134415,-0.8833111344343304,0.008552113334772215,-2232,-442,-473,4130,315,100605
12:7:7.80,21386,-991.2109375,253.90625,-237.3046875,-0.4227187448330266,-0.8710938296703699,0.06597344572538566,-2233,-444,-491,4130,315,100605
12:7:7.100,21387,-980.46875,278.3203125,-214.84375,-0.34941491624926485,-0.8710938296703699,0.07330382858376185,-2232,-443,-498,4130,315,100605
12:7:7.121,21388,-1005.859375,277.34375,-201.171875,-0.20525072003453318,-0.8503244115716375,0.04153883619746505,-2221,-441,-503,4130,315,100605
12:7:7.141,21389,-998.046875,263.671875,-196.2890625,-0.08429940287132612,-0.8417722982368653,0.020769418098732523,-2224,-448,-509,4130,315,100605
12:7:7.162,21390,-995.1171875,260.7421875,-192.3828125,0.3005456971934236,-0.8100073058505685,-0.013439035240356337,-2227,-443,-519,4130,315,100605
12:7:7.193,21391,-1011.71875,248.046875,-192.3828125,0.05375614096142535,-0.7855726963226478,-0.004886921905584123,-2223,-443,-515,4130,315,100605
12:7:7.214,21392,-1025.390625,242.1875,-176.7578125,0.051312680008633295,-0.7403686686959947,0.006108652381980153,-2221,-443,-530,4130,315,100605
12:7:7.234,21393,-1016.6015625,242.1875,-173.828125,0.025656340004316647,-0.6963863715457376,0.012217304763960306,-2220,-444,-536,4130,315,100605
12:7:7.244,21394,-1003.90625,254.8828125,-182.6171875,0.04398229715025711,-0.6462954220135002,0.007330382858376184,-2221,-440,-550,4130,315,100605
12:7:7.264,21395,-996.09375,256.8359375,-195.3125,0.1307251609743753,-0.6279694648675598,0.019547687622336492,-2207,-437,-539,4130,315,100605
12:7:7.285,21396,-1011.71875,245.1171875,-207.03125,0.22602013813326569,-0.594982742004867,0.04031710572106901,-2216,-438,-548,4130,315,100605
12:7:7.305,21397,-1041.015625,113.28125,-299.8046875,0.2138028333693054,-0.5241223743738972,0.05497787143782139,-2220,-437,-557,4130,315,100605
12:7:7.325,21398,-1083.984375,86.9140625,-451.171875,-0.27977627909469105,-0.21258110289290938,0.008552113334772215,-2215,-438,-558,4130,315,100605
12:7:7.336,21399,-1044.921875,151.3671875,-433.59375,-0.27977627909469105,0.15760323145508798,-0.025656340004316647,-2216,-437,-553,4130,315,100605
12:7:7.356,21400,-999.0234375,208.0078125,-272.4609375,-0.06230825429619757,0.16859880574265224,-0.04642575810304917,-2214,-437,-555,4130,315,100605
12:7:7.377,21401,-975.5859375,264.6484375,-166.015625,0.08796459430051422,0.11728612573401895,-0.04276056667386108,-2216,-440,-559,4130,315,100605
12:7:7.398,21402,-974.609375,291.9921875,-66.40625,0.31764992386296803,0.039095375244672985,0.006108652381980153,-2200,-431,-566,4130,315,100605
12:7:7.409,21403,-975.5859375,294.921875,1.953125,0.6120869686744114,-0.03054326190990077,0.02809980095710871,-2219,-441,-563,4130,315,100605
12:7:7.429,21404,-956.0546875,265.625,49.8046875,0.8869763258635184,-0.05619960191421742,-0.004886921905584123,-2219,-441,-564,4130,315,100605
12:7:7.470,21405,-936.5234375,228.515625,68.359375,1.0445795573186063,-0.04398229715025711,-0.04642575810304917,-2217,-433,-554,4130,315,100605
12:7:7.480,21406,-928.7109375,186.5234375,50.78125,0.9517280411125081,-0.03420845333908886,-0.07696902001294993,-2218,-428,-553,4130,315,100605
12:7:7.501,21407,-911.1328125,157.2265625,35.15625,0.4398229715025711,0.021991148575128554,-0.06597344572538566,-2218,-431,-559,4130,315,100605
12:7:7.522,21408,-900.390625,176.7578125,25.390625,0.052534410485029326,0.03665191429188092,-0.04520402762665313,-2215,-430,-570,4130,315,100605
12:7:7.543,21409,-896.484375,225.5859375,19.53125,-0.15638150097869194,0.03420845333908886,-0.014660765716752368,-2214,-429,-565,4130,315,100605
12:7:7.552,21410,-912.109375,250.9765625,10.7421875,-0.1954768762233649,0.003665191429188092,-0.0024434609527920616,-2215,-427,-557,4130,315,100605
12:7:7.573,21411,-931.640625,264.6484375,7.8125,-0.10873401239924674,-0.025656340004316647,0.007330382858376184,-2216,-427,-562,4130,315,100605
12:7:7.615,21412,-949.21875,261.71875,7.8125,0.0,-0.03420845333908886,0.012217304763960306,-2204,-424,-564,4130,315,100605
12:7:7.625,21413,-980.46875,248.046875,9.765625,0.058643062867009474,-0.051312680008633295,0.01710422666954443,-2215,-427,-555,4130,315,100605
12:7:7.646,21414,-976.5625,232.421875,-11.71875,0.05742133239061345,-0.0476474885794452,0.025656340004316647,-2216,-430,-572,4130,315,100605
12:7:7.666,21415,-964.84375,229.4921875,-24.4140625,0.0,-0.06597344572538566,0.058643062867009474,-2215,-430,-573,4130,315,100605
12:7:7.686,21416,-961.9140625,229.4921875,-32.2265625,-0.01832595714594046,-0.07452555906015788,0.058643062867009474,-2205,-425,-568,4130,315,100605
12:7:7.707,21417,-965.8203125,213.8671875,-41.9921875,-0.0476474885794452,-0.07086036763096978,0.06841690667817772,-2208,-426,-573,4130,315,100605
12:7:7.717,21418,-966.796875,214.84375,-47.8515625,-0.0671951762017817,-0.048869219055841226,0.05986479334340551,-2211,-427,-571,4130,315,100605
12:7:7.759,21419,-961.9140625,207.03125,-60.546875,-0.05619960191421742,-0.029321531433504737,0.0476474885794452,-2213,-422,-563,4130,315,100605
12:7:7.779,21420,-956.0546875,206.0546875,-73.2421875,-0.012217304763960306,-0.0158824961931484,0.02809980095710871,-2215,-430,-559,4130,315,100605
12:7:7.790,21421,-958.984375,203.125,-72.265625,0.023212879051524585,0.003665191429188092,0.009773843811168246,-2212,-424,-572,4130,315,100605
12:7:7.810,21422,-958.0078125,202.1484375,-65.4296875,0.03298672286269283,0.013439035240356337,-0.003665191429188092,-2215,-429,-565,4130,315,100605
12:7:7.831,21423,-958.984375,213.8671875,-48.828125,0.0012217304763960308,0.024434609527920613,-0.009773843811168246,-2209,-429,-567,4130,315,100605
12:7:7.851,21424,-964.84375,223.6328125,-37.109375,0.003665191429188092,0.0317649923862968,-0.019547687622336492,-2218,-431,-565,4130,315,100605
12:7:7.872,21425,-960.9375,229.4921875,-26.3671875,0.023212879051524585,0.03420845333908886,-0.007330382858376184,-2213,-427,-570,4130,315,100605
12:7:7.883,21426,-957.03125,229.4921875,-23.4375,0.03298672286269283,0.03298672286269283,-0.013439035240356337,-2211,-429,-563,4130,315,100605
12:7:7.903,21427,-951.171875,229.4921875,-15.625,0.020769418098732523,0.04031710572106901,-0.0158824961931484,-2209,-426,-559,4136,315,100611
12:7:7.924,21428,-945.3125,228.515625,-18.5546875,-0.01832595714594046,0.03054326190990077,-0.009773843811168246,-2213,-435,-561,4136,315,100611
12:7:7.944,21429,-947.265625,225.5859375,-18.5546875,-0.0671951762017817,0.02809980095710871,-0.012217304763960306,-2213,-432,-564,4136,315,100611
12:7:7.955,21430,-950.1953125,236.328125,-9.765625,-0.09285151620609834,0.03787364476827696,-0.007330382858376184,-2201,-425,-562,4136,315,100611
12:7:7.975,21431,-944.3359375,236.328125,-5.859375,-0.10506882097005865,0.0476474885794452,-0.007330382858376184,-2216,-429,-568,4136,315,100611
12:7:7.996,21432,-948.2421875,236.328125,-6.8359375,-0.1038470904936626,0.03298672286269283,0.004886921905584123,-2214,-430,-564,4136,315,100611
12:7:8.37,21433,-952.1484375,238.28125,-11.71875,-0.10629055144645469,0.01832595714594046,0.004886921905584123,-2210,-431,-565,4136,315,100611
12:7:8.47,21434,-950.1953125,237.3046875,-15.625,-0.08918632477691024,0.004886921905584123,-0.0012217304763960308,-2207,-431,-558,4136,315,100611
12:7:8.67,21435,-954.1015625,246.09375,-12.6953125,-0.07574728953655392,-0.0024434609527920616,-0.0024434609527920616,-2214,-435,-554,4136,315,100611
12:7:8.88,21436,-942.3828125,245.1171875,-13.671875,-0.051312680008633295,-0.004886921905584123,-0.0012217304763960308,-2212,-433,-558,4136,315,100611
12:7:8.108,21437,-948.2421875,243.1640625,-13.671875,-0.024434609527920613,-0.012217304763960306,0.014660765716752368,-2201,-426,-554,4136,315,100611
12:7:8.119,21438,-953.125,234.375,-16.6015625,-0.03665191429188092,-0.012217304763960306,0.024434609527920613,-2216,-432,-566,4136,315,100611
12:7:8.139,21439,-951.171875,238.28125,-19.53125,-0.06108652381980154,-0.007330382858376184,0.01832595714594046,-2214,-431,-565,4136,315,100611
12:7:8.180,21440,-955.078125,240.234375,-18.5546875,-0.05497787143782139,-0.021991148575128554,0.010995574287564277,-2205,-431,-566,4136,315,100611
12:7:8.201,21441,-957.03125,244.140625,-18.5546875,-0.008552113334772215,-0.024434609527920613,0.0024434609527920616,-2214,-434,-572,4136,315,100611
12:7:8.211,21442,-954.1015625,236.328125,-21.484375,0.014660765716752368,-0.029321531433504737,-0.0024434609527920616,-2217,-436,-562,4136,315,100611
12:7:8.231,21443,-953.125,229.4921875,-26.3671875,-0.0012217304763960308,-0.023212879051524585,-0.003665191429188092,-2215,-433,-558,4136,315,100611
12:7:8.252,21444,-959.9609375,234.375,-35.15625,-0.02809980095710871,-0.024434609527920613,-0.006108652381980153,-2193,-430,-562,4136,315,100611
12:7:8.273,21445,-961.9140625,229.4921875,-39.0625,-0.04153883619746505,-0.0024434609527920616,0.0012217304763960308,-2217,-438,-576,4136,315,100611
12:7:8.283,21446,-953.125,232.421875,-43.9453125,-0.04153883619746505,0.003665191429188092,-0.010995574287564277,-2214,-432,-566,4136,315,100611
12:7:8.304,21447,-951.171875,240.234375,-43.9453125,-0.026878070480712675,-0.0024434609527920616,-0.0012217304763960308,-2215,-432,-571,4136,315,100611
12:7:8.325,21448,-954.1015625,236.328125,-38.0859375,-0.006108652381980153,0.008552113334772215,-0.003665191429188092,-2216,-432,-564,4136,315,100611
12:7:8.345,21449,-958.0078125,234.375,-32.2265625,-0.0012217304763960308,0.019547687622336492,-0.006108652381980153,-2214,-432,-566,4136,315,100611
12:7:8.365,21450,-957.03125,232.421875,-27.34375,-0.0158824961931484,0.025656340004316647,-0.007330382858376184,-2217,-431,-573,4136,315,100611
12:7:8.376,21451,-958.0078125,230.46875,-25.390625,-0.012217304763960306,0.026878070480712675,-0.012217304763960306,-2210,-427,-574,4136,315,100611
12:7:8.396,21452,-956.0546875,234.375,-18.5546875,-0.023212879051524585,0.026878070480712675,-0.010995574287564277,-2217,-434,-553,4136,315,100611
12:7:8.417,21453,-958.0078125,234.375,-11.71875,-0.026878070480712675,0.03054326190990077,-0.010995574287564277,-2214,-432,-567,4136,315,100611
12:7:8.448,21454,-950.1953125,230.46875,-8.7890625,-0.01832595714594046,0.024434609527920613,-0.006108652381980153,-2216,-429,-571,4136,315,100611
12:7:8.468,21455,-946.2890625,224.609375,-10.7421875,-0.01710422666954443,0.025656340004316647,0.0,-2211,-428,-569,4136,315,100611
12:7:8.489,21456,-943.359375,228.515625,-12.6953125,-0.0317649923862968,0.020769418098732523,-0.010995574287564277,-2210,-436,-570,4136,315,100611
12:7:8.509,21457,-948.2421875,229.4921875,-9.765625,-0.03420845333908886,0.0158824961931484,-0.025656340004316647,-2215,-435,-567,4136,315,100611
12:7:8.530,21458,-945.3125,233.3984375,-8.7890625,-0.03054326190990077,0.01710422666954443,-0.024434609527920613,-2203,-431,-566,4136,315,100611
12:7:8.540,21459,-946.2890625,230.46875,-10.7421875,-0.0476474885794452,0.012217304763960306,-0.023212879051524585,-2213,-430,-565,4136,315,100611
12:7:8.561,21460,-951.171875,242.1875,-14.6484375,-0.05375614096142535,0.009773843811168246,-0.024434609527920613,-2212,-433,-563,4136,315,100611
12:7:8.581,21461,-956.0546875,244.140625,-14.6484375,-0.04398229715025711,0.006108652381980153,-0.01710422666954443,-2209,-430,-571,4136,315,100611
12:7:8.601,21462,-957.03125,240.234375,-11.71875,-0.03543018381548489,0.006108652381980153,-0.009773843811168246,-2212,-434,-562,4136,315,100611
12:7:8.623,21463,-952.1484375,238.28125,-12.6953125,-0.03665191429188092,0.003665191429188092,-0.020769418098732523,-2215,-436,-562,4136,315,100611
12:7:8.633,21464,-952.1484375,241.2109375,-18.5546875,-0.03787364476827696,0.0024434609527920616,-0.01832595714594046,-2215,-438,-568,4136,315,100611
12:7:8.653,21465,-951.171875,234.375,-20.5078125,-0.05497787143782139,0.0012217304763960308,-0.007330382858376184,-2206,-431,-565,4136,315,100611
12:7:8.674,21466,-948.2421875,230.46875,-21.484375,-0.08552113334772216,0.007330382858376184,0.0,-2217,-433,-558,4136,315,100611
12:7:8.694,21467,-956.0546875,237.3046875,-18.5546875,-0.08552113334772216,0.004886921905584123,-0.0012217304763960308,-2214,-431,-584,4136,315,100611
12:7:8.725,21468,-953.125,247.0703125,-23.4375,-0.03420845333908886,0.0024434609527920616,-0.008552113334772215,-2211,-436,-566,4136,315,100611
12:7:8.746,21469,-955.078125,240.234375,-18.5546875,0.009773843811168246,0.008552113334772215,-0.020769418098732523,-2213,-435,-569,4136,315,100611
12:7:8.767,21470,-950.1953125,232.421875,-19.53125,-0.0012217304763960308,0.0158824961931484,-0.023212879051524585,-2215,-438,-569,4136,315,100611
12:7:8.787,21471,-949.21875,230.46875,-20.5078125,-0.010995574287564277,0.009773843811168246,-0.013439035240356337,-2214,-437,-567,4136,315,100611
12:7:8.797,21472,-949.21875,235.3515625,-25.390625,-0.021991148575128554,0.014660765716752368,0.0012217304763960308,-2197,-429,-563,4136,315,100611
12:7:8.818,21473,-952.1484375,231.4453125,-16.6015625,-0.03054326190990077,0.010995574287564277,-0.0024434609527920616,-2210,-436,-568,4136,315,100611
12:7:8.839,21474,-957.03125,232.421875,-17.578125,-0.03665191429188092,0.020769418098732523,-0.010995574287564277,-2216,-430,-561,4136,315,100611
12:7:8.869,21475,-958.984375,241.2109375,-18.5546875,-0.0158824961931484,0.023212879051524585,-0.023212879051524585,-2214,-429,-570,4136,315,100611
12:7:8.890,21476,-955.078125,238.28125,-10.7421875,0.0,0.0158824961931484,-0.01832595714594046,-2210,-432,-567,4136,315,100611
12:7:8.911,21477,-948.2421875,230.46875,-13.671875,-0.01710422666954443,0.01710422666954443,-0.004886921905584123,-2218,-431,-566,4130,315,100610
12:7:8.932,21478,-951.171875,223.6328125,-19.53125,-0.051312680008633295,0.0158824961931484,0.003665191429188092,-2210,-436,-562,4130,315,100610
12:7:8.942,21479,-954.1015625,228.515625,-11.71875,-0.0952949771588904,0.01832595714594046,-0.007330382858376184,-2201,-428,-562,4130,315,100610
12:7:8.962,21480,-952.1484375,238.28125,-9.765625,-0.10018189906447451,0.024434609527920613,-0.004886921905584123,-2212,-430,-567,4130,315,100610
12:7:8.983,21481,-947.265625,241.2109375,-9.765625,-0.07330382858376185,0.019547687622336492,-0.006108652381980153,-2212,-434,-558,4130,315,100610
12:7:9.4,21482,-949.21875,237.3046875,-16.6015625,-0.025656340004316647,0.012217304763960306,-0.003665191429188092,-2206,-434,-564,4130,315,100610
12:7:9.14,21483,-953.125,238.28125,-13.671875,-0.029321531433504737,0.012217304763960306,-0.0024434609527920616,-2214,-435,-555,4130,315,100610
12:7:9.34,21484,-954.1015625,231.4453125,-8.7890625,-0.058643062867009474,0.019547687622336492,-0.009773843811168246,-2213,-439,-560,4130,315,100610
12:7:9.55,21485,-952.1484375,240.234375,-8.7890625,-0.07208209810736582,0.01710422666954443,-0.009773843811168246,-2213,-437,-558,4130,315,100610
12:7:9.75,21486,-958.0078125,245.1171875,-12.6953125,-0.05497787143782139,0.013439035240356337,-0.010995574287564277,-2211,-431,-565,4130,315,100610
12:7:9.96,21487,-952.1484375,242.1875,-13.671875,-0.04153883619746505,0.008552113334772215,-0.003665191429188092,-2213,-433,-554,4130,315,100610
12:7:9.106,21488,-952.1484375,236.328125,-18.5546875,-0.06108652381980154,0.010995574287564277,0.023212879051524585,-2213,-434,-559,4130,315,100610
12:7:9.147,21489,-955.078125,239.2578125,-15.625,-0.10018189906447451,0.012217304763960306,0.021991148575128554,-2206,-430,-568,4130,315,100610
12:7:9.168,21490,-955.078125,245.1171875,-18.5546875,-0.11362093430483088,0.01710422666954443,0.03543018381548489,-2208,-433,-557,4130,315,100610
12:7:9.178,21491,-954.1015625,250.9765625,-20.5078125,-0.07819075048934597,0.012217304763960306,0.03420845333908886,-2212,-432,-558,4130,315,100610
12:7:9.199,21492,-957.03125,251.953125,-13.671875,-0.025656340004316647,0.010995574287564277,0.03665191429188092,-2216,-432,-560,4130,315,100610
12:7:9.220,21493,-958.0078125,246.09375,-9.765625,0.004886921905584123,-0.0024434609527920616,0.04642575810304917,-2206,-430,-559,4130,315,100610
12:7:9.240,21494,-959.9609375,209.9609375,-11.71875,-0.04642575810304917,0.004886921905584123,0.039095375244672985,-2215,-433,-561,4130,315,100610
12:7:9.261,21495,-954.1015625,211.9140625,-9.765625,-0.1343903524035634,0.008552113334772215,0.013439035240356337,-2215,-434,-563,4130,315,100610
12:7:9.292,21496,-944.3359375,226.5625,-13.671875,-0.1429424657383356,0.021991148575128554,-0.0158824961931484,-2215,-433,-546,4130,315,100610
12:7:9.312,21497,-951.171875,233.3984375,-11.71875,-0.10506882097005865,0.023212879051524585,-0.0317649923862968,-2212,-433,-560,4130,315,100610
12:7:9.333,21498,-958.0078125,239.2578125,-15.625,-0.09040805525330627,0.019547687622336492,-0.0012217304763960308,-2211,-433,-554,4130,315,100610
12:7:9.343,21499,-960.9375,239.2578125,-29.296875,-0.15882496193148402,0.03543018381548489,0.019547687622336492,-2210,-432,-561,4130,315,100610
12:7:9.363,21500,-960.9375,251.953125,-36.1328125,-0.20036379812894903,0.04642575810304917,0.052534410485029326,-2207,-433,-560,4130,315,100610
12:7:9.383,21501,-966.796875,299.8046875,-26.3671875,-0.1307251609743753,0.04031710572106901,0.10995574287564278,-2215,-431,-552,4130,315,100610
12:7:9.404,21502,-1000.0,350.5859375,-31.25,0.010995574287564277,0.039095375244672985,0.19303341527057283,-2213,-428,-549,4130,315,100610
12:7:9.434,21503,-1014.6484375,407.2265625,-41.015625,0.1270599695451872,0.019547687622336492,0.3445279943436807,-2212,-436,-557,4130,315,100610
12:7:9.455,21504,-1029.296875,457.03125,-42.96875,0.2186897552748895,-0.014660765716752368,0.592539281052075,-2213,-422,-560,4130,315,100610
12:7:9.475,21505,-1037.109375,503.90625,-63.4765625,0.2211332162276816,-0.025656340004316647,0.8552113334772216,-2214,-414,-548,4130,315,100610
12:7:9.496,21506,-1044.921875,554.6875,-67.3828125,0.2944370448114434,-0.04153883619746505,1.1386528040011008,-2213,-409,-562,4130,315,100610
12:7:9.506,21507,-1061.5234375,651.3671875,-72.265625,0.594982742004867,-0.04031710572106901,1.6041321155079884,-2192,-389,-571,4130,315,100610
12:7:9.527,21508,-1060.546875,781.25,-55.6640625,1.0604620535117548,-0.04031710572106901,1.912008195559788,-2207,-375,-559,4130,315,100610
12:7:9.547,21509,-1080.078125,876.953125,-30.2734375,1.6994270926668789,-0.026878070480712675,2.2162190841824,-2200,-360,-554,4130,315,100610
12:7:9.567,21510,-1081.0546875,903.3203125,-51.7578125,2.2992967565773297,0.013439035240356337,2.5082126680410513,-2195,-334,-558,4130,315,100610
12:7:9.588,21511,-1065.4296875,956.0546875,-94.7265625,2.8258625919040194,0.07574728953655392,2.7550022242730496,-2188,-304,-544,4130,315,100610
12:7:9.598,21512,-1069.3359375,983.3984375,-122.0703125,3.2717942157885704,0.1466076571675237,2.971248518595147,-2184,-280,-552,4130,315,100610
12:7:9.618,21513,-1048.828125,975.5859375,-161.1328125,3.64442201108936,0.2651155133779387,3.174055777676888,-2169,-245,-527,4130,315,100610
12:7:9.639,21514,-1024.4140625,977.5390625,-227.5390625,3.966958856857912,0.4398229715025711,3.3426545834195402,-2145,-209,-499,4130,315,100610
12:7:9.659,21515,-976.5625,899.4140625,-290.0390625,3.966958856857912,0.7012732934513217,3.556457416788845,-2142,-196,-482,4130,315,100610
12:7:9.679,21516,-934.5703125,858.3984375,-341.796875,3.6566393158533197,0.8991936306274787,3.6541958549005282,-2118,-163,-457,4130,315,100610
12:7:9.710,21517,-878.90625,849.609375,-370.1171875,3.3096678605568477,1.0971139678036357,3.7140606482439336,-2077,-131,-439,4130,315,100610
12:7:9.730,21518,-836.9140625,859.375,-438.4765625,3.0799825309943936,1.2840387306922283,3.7592646758705865,-2074,-120,-411,4130,315,100610
12:7:9.751,21519,-784.1796875,874.0234375,-503.90625,3.023782929080176,1.4318681183361481,3.7727037111109434,-2044,-107,-394,4130,315,100610
12:7:9.761,21520,-745.1171875,879.8828125,-529.296875,3.0176742766981954,1.5784757755036718,3.7922513987332795,-2007,-91,-358,4130,315,100610
12:7:9.781,21521,-685.546875,865.234375,-482.421875,3.1276300195738385,1.7373007374351557,3.7568212149177946,-1971,-85,-339,4130,315,100610
12:7:9.802,21522,-607.421875,845.703125,-474.609375,3.26568556340659,1.8533651326927787,3.73971698824825,-1954,-77,-313,4130,315,100610
12:7:9.823,21523,-538.0859375,799.8046875,-531.25,3.2436944148314617,1.9987510593839062,3.7116171872911417,-1919,-73,-269,4130,315,100610
12:7:9.854,21524,-446.2890625,706.0546875,-558.59375,3.0824259919471855,2.070833157491272,3.661526237758904,-1895,-76,-248,4130,315,100610
12:7:9.874,21525,-327.1484375,650.390625,-551.7578125,2.989574475741087,2.042733356534163,3.5320228072609248,-1847,-82,-220,4130,315,100610
12:7:9.895,21526,-242.1875,597.65625,-495.1171875,3.0323350424149487,2.0121900946242626,3.3756413062822332,-1814,-89,-197,4130,315,100610
12:7:9.916,21527,-142.578125,497.0703125,-504.8828125,2.961474674783979,1.9608774146156294,3.240029223402274,-1792,-92,-192,4130,315,100614
12:7:9.926,21528,-57.6171875,408.203125,-541.9921875,2.8258625919040194,1.8741345507915113,3.0750956090888097,-1749,-107,-169,4130,315,100614
12:7:9.946,21529,24.4140625,343.75,-553.7109375,2.543642851856536,1.781283034585413,2.897944690011385,-1724,-123,-152,4130,315,100614
12:7:9.966,21530,86.9140625,324.21875,-559.5703125,2.2760838775258057,1.700648823143275,2.7183503099811688,-1707,-134,-137,4130,315,100614
12:7:9.987,21531,174.8046875,274.4140625,-560.546875,2.0964894974955888,1.584584427885652,2.54852977376212,-1676,-154,-126,4130,315,100614
12:7:10.7,21532,234.375,267.578125,-590.8203125,2.0488420089161434,1.4086552392846234,2.315179252770478,-1648,-172,-129,4130,315,100614
12:7:10.17,21533,294.921875,221.6796875,-638.671875,1.9792033717615696,1.2950343049797925,2.2125538927532116,-1637,-184,-116,4130,315,100614
12:7:10.38,21534,346.6796875,197.265625,-669.921875,1.880243203173491,1.2095131716320704,2.113593724165133,-1617,-205,-123,4130,315,100614
12:7:10.59,21535,381.8359375,163.0859375,-683.59375,1.7397441983879478,1.1423179954302887,2.0195204774826387,-1590,-227,-117,4130,315,100614
12:7:10.79,21536,420.8984375,114.2578125,-691.40625,1.5406021307353948,1.0665707058937348,1.99142067652553,-1577,-246,-111,4130,315,100614
12:7:10.89,21537,478.515625,89.84375,-736.328125,1.4123204307138115,0.9993755296919531,1.9584339536628372,-1569,-255,-113,4130,315,100614
12:7:10.131,21538,520.5078125,39.0625,-746.09375,1.3194689145077132,0.9370672753957556,1.938886266040501,-1551,-275,-113,4130,315,100614
12:7:10.152,21539,559.5703125,-23.4375,-759.765625,1.2217304763960306,0.8674286382411819,1.9168951174653726,-1543,-295,-114,4130,315,100614
12:7:10.173,21540,597.65625,-82.03125,-766.6015625,1.0934487763744476,0.7672467391767073,1.8044959136369376,-1537,-303,-109,4130,315,100614
12:7:10.183,21541,621.09375,-151.3671875,-734.375,0.9492845801597158,0.6976081020221336,1.7275268936239874,-1525,-319,-104,4130,315,100614
12:7:10.203,21542,624.0234375,-182.6171875,-722.65625,0.8246680715673209,0.6194173515327875,1.6530013345638297,-1508,-340,-110,4130,315,100614
12:7:10.224,21543,623.046875,-211.9140625,-750.0,0.7867944267990439,0.5424483315198376,1.5662584707397116,-1512,-346,-117,4130,315,100614
12:7:10.244,21544,642.578125,-216.796875,-753.90625,0.7757988525114795,0.4801400772236401,1.4880677202503654,-1510,-361,-119,4130,315,100614
12:7:10.327,21545,690.4296875,-258.7890625,-741.2109375,0.7867944267990439,0.41783182292744253,1.3573425592759902,-1496,-372,-123,4130,315,100614
12:7:10.348,21546,698.2421875,-326.171875,-731.4453125,0.7391469382195985,0.2907718533822553,1.1728612573401895,-1497,-383,-124,4130,315,100614
12:7:10.368,21547,662.109375,-347.65625,-729.4921875,0.6426302305843121,0.14416419621473164,1.0201449477906857,-1496,-395,-117,4130,315,100614
12:7:10.389,21548,633.7890625,-342.7734375,-729.4921875,0.4813618077000361,-0.009773843811168246,0.8307767239493008,-1499,-404,-118,4130,315,100614
12:7:10.410,21549,625.0,-344.7265625,-728.515625,0.3824016391119576,-0.07574728953655392,0.6902777191637574,-1497,-403,-123,4130,315,100614
12:7:10.420,21550,622.0703125,-386.71875,-693.359375,0.3066543495754037,-0.17470745812463243,0.5070181477043528,-1498,-411,-130,4130,315,100614
12:7:10.440,21551,604.4921875,-406.25,-692.3828125,0.26267205242514663,-0.3078760800517997,0.3139847324337799,-1501,-417,-114,4130,315,100614
12:7:10.461,21552,564.453125,-331.0546875,-759.765625,0.3457497248200767,-0.4838052686528282,0.10873401239924674,-1501,-420,-120,4130,315,100614
12:7:10.482,21553,537.109375,-361.328125,-780.2734375,0.2309070600388498,-0.6658431096358368,-0.0317649923862968,-1506,-419,-112,4130,315,100614
12:7:10.492,21554,519.53125,-424.8046875,-716.796875,-0.1075122819228507,-0.7648032782239153,-0.1502728485967118,-1518,-422,-106,4130,315,100614
12:7:10.513,21555,508.7890625,-400.390625,-700.1953125,-0.2577851305195625,-0.8112290363269644,-0.2736676267127109,-1518,-421,-97,4130,315,100614
12:7:10.533,21556,488.28125,-307.6171875,-753.90625,0.08552113334772216,-0.8967501696746865,-0.5082398781807488,-1511,-412,-95,4130,315,100614
12:7:10.554,21557,468.75,-268.5546875,-788.0859375,0.631634656296748,-1.0971139678036357,-0.7110471372624899,-1536,-419,-88,4130,315,100614
12:7:10.574,21558,448.2421875,-369.140625,-750.9765625,0.4935791124639964,-1.263269312593496,-0.8735372906231619,-1543,-420,-87,4130,315,100614
12:7:10.584,21559,402.34375,-463.8671875,-717.7734375,0.09285151620609834,-1.386664090709495,-0.9688322677820524,-1554,-421,-81,4130,315,100614
12:7:10.604,21560,358.3984375,-400.390625,-707.03125,-0.09162978572970232,-1.4538592669112766,-1.1203268468551604,-1566,-414,-80,4130,315,100614
12:7:10.625,21561,326.171875,-231.4453125,-737.3046875,0.03665191429188092,-1.5259413650186424,-1.3573425592759902,-1576,-413,-73,4130,315,100614
12:7:10.645,21562,207.03125,-101.5625,-810.546875,0.3274237676741363,-1.5638150097869192,-1.6603317174222059,-1592,-409,-63,4130,315,100614
12:7:10.655,21563,101.5625,-249.0234375,-879.8828125,0.2614503219487506,-1.5931365412204241,-1.8350391755468385,-1602,-403,-60,4130,315,100614
12:7:10.676,21564,-12.6953125,-329.1015625,-870.1171875,-0.3078760800517997,-1.5088371383490977,-1.8594737850747587,-1621,-405,-61,4130,315,100614
12:7:10.696,21565,-43.9453125,-295.8984375,-863.28125,-1.1203268468551604,-1.308473340220149,-1.7507397726755123,-1640,-392,-52,4130,315,100614
12:7:10.717,21566,-59.5703125,-162.109375,-907.2265625,-1.147204917335873,-1.2021827887736944,-1.6407840297998693,-1643,-373,-51,4130,315,100614
12:7:10.737,21567,-65.4296875,-76.171875,-992.1875,-0.8197811496617367,-1.1374310735247046,-1.5015067554907218,-1657,-369,-36,4130,315,100614
12:7:10.747,21568,-101.5625,-83.0078125,-1041.015625,-0.4422664324553632,-1.0616837839881508,-1.3072516097437528,-1671,-359,-48,4130,315,100614
12:7:10.768,21569,-134.765625,-124.0234375,-1074.21875,-0.29810223624063154,-0.911410935391439,-1.072679358275715,-1682,-359,-51,4130,315,100614
12:7:10.788,21570,-192.3828125,-112.3046875,-1104.4921875,-0.29932396671702755,-0.6829473363053812,-0.8075638448977764,-1685,-347,-41,4130,315,100614
12:7:10.809,21571,-219.7265625,-63.4765625,-1120.1171875,-0.2614503219487506,-0.3811799086355616,-0.5094616086571448,-1672,-340,-36,4130,315,100614
12:7:10.819,21572,-215.8203125,-41.015625,-1126.953125,-0.14172073526193957,-0.06597344572538566,-0.2113593724165133,-1696,-349,-43,4130,315,100614
12:7:10.840,21573,-198.2421875,-31.25,-1104.4921875,0.1661553447898602,0.35063664672566086,0.2186897552748895,-1688,-347,-32,4130,315,100614
12:7:10.861,21574,-166.9921875,-31.25,-1092.7734375,0.39706240482871,0.5705481324769464,0.45081854579013536,-1694,-349,-41,4130,315,100614
12:7:10.881,21575,-134.765625,-57.6171875,-1070.3125,0.515570261039125,0.7452555906015788,0.6047565858160352,-1684,-355,-41,4130,315,100614
12:7:10.902,21576,-113.28125,-84.9609375,-1047.8515625,0.5436700619962337,0.8991936306274787,0.7220427115500542,-1674,-359,-45,4130,315,100614
12:7:10.912,21577,-103.515625,-110.3515625,-1031.25,0.5045746867515608,1.0348057135074382,0.8429940287132612,-1656,-358,-45,4130,315,100606
12:7:10.933,21578,-107.421875,-125.9765625,-998.046875,0.4434881629317592,1.1630874135290212,0.9468411192069238,-1655,-374,-44,4130,315,100606
12:7:10.953,21579,-90.8203125,-126.953125,-975.5859375,0.39950586578150205,1.27426488688106,1.0445795573186063,-1639,-378,-49,4130,315,100606
12:7:10.974,21580,-78.125,-113.28125,-976.5625,0.38606683054114566,1.3683381335635545,1.1252137687607444,-1632,-380,-53,4130,315,100606
12:7:10.984,21581,-85.9375,-87.890625,-953.125,0.41050144006906636,1.4844025288211775,1.2473868164003474,-1622,-382,-61,4130,315,100606
12:7:11.4,21582,-55.6640625,-108.3984375,-905.2734375,0.38606683054114566,1.5858061583620482,1.315803723078525,-1602,-392,-65,4130,315,100606
12:7:11.25,21583,-6.8359375,-141.6015625,-869.140625,0.3481931857728688,1.621236342177533,1.3720033249927428,-1591,-399,-67,4130,315,100606
12:7:11.45,21584,46.875,-151.3671875,-849.609375,0.32498030672134415,1.6542230650402259,1.3646729421343664,-1564,-403,-71,4130,315,100606
12:7:11.65,21585,98.6328125,-155.2734375,-833.984375,0.3335324200561164,1.6859880574265225,1.2620475821170998,-1560,-408,-83,4130,315,100606
12:7:11.117,21586,185.546875,-235.3515625,-779.296875,0.2883283924294633,1.6859880574265225,1.0775662801812993,-1552,-413,-89,4130,315,100606
12:7:11.137,21587,381.8359375,-326.171875,-711.9140625,0.16004669240788005,1.6029103850315922,0.8466592201424493,-1537,-421,-99,4130,315,100606
12:7:11.157,21588,563.4765625,-425.78125,-666.9921875,0.05742133239061345,1.445307153576504,0.6291911953439558,-1522,-423,-101,4130,315,100606
12:7:11.168,21589,703.125,-480.46875,-630.859375,-0.012217304763960306,1.2290608592544068,0.41172317054546237,-1515,-430,-104,4130,315,100606
12:7:11.188,21590,820.3125,-518.5546875,-596.6796875,-0.010995574287564277,0.913854396344231,0.05009094953223726,-1506,-427,-102,4130,315,100606
12:7:11.208,21591,953.125,-558.59375,-597.65625,0.025656340004316647,0.6878342582109653,-0.16249015336067207,-1485,-420,-119,4130,315,100606
12:7:11.229,21592,1082.03125,-574.21875,-594.7265625,0.0,0.47280969436526393,-0.34086280291449256,-1497,-427,-122,4130,315,100606
12:7:11.239,21593,1119.140625,-583.984375,-629.8828125,-0.020769418098732523,0.2748893571891069,-0.4398229715025711,-1490,-423,-117,4130,315,100606
12:7:11.260,21594,1090.8203125,-552.734375,-672.8515625,-0.004886921905584123,0.10506882097005865,-0.4972443038931845,-1483,-420,-122,4130,315,100606
12:7:11.280,21595,1034.1796875,-506.8359375,-683.59375,0.0476474885794452,-0.023212879051524585,-0.5131268000863329,-1484,-419,-129,4130,315,100606
12:7:11.300,21596,936.5234375,-456.0546875,-674.8046875,0.10995574287564278,-0.06230825429619757,-0.5009094953223726,-1488,-414,-124,4130,315,100606
12:7:11.321,21597,823.2421875,-382.8125,-688.4765625,0.16982053621904827,-0.0830776723949301,-0.4813618077000361,-1491,-415,-117,4130,315,100606
12:7:11.331,21598,756.8359375,-330.078125,-706.0546875,0.22602013813326569,-0.07330382858376185,-0.43493604959698695,-1478,-405,-122,4130,315,100606
12:7:11.351,21599,723.6328125,-347.65625,-707.03125,0.16982053621904827,-0.07208209810736582,-0.395840674352314,-1495,-412,-117,4130,315,100606
12:7:11.372,21600,683.59375,-328.125,-708.0078125,0.14049900478554353,-0.06963863715457375,-0.3481931857728688,-1498,-413,-109,4130,315,100606
12:7:11.392,21601,647.4609375,-298.828125,-734.375,0.18325957145940464,-0.0989601685880785,-0.3262020371977402,-1490,-411,-126,4130,315,100606
12:7:11.402,21602,634.765625,-279.296875,-760.7421875,0.2309070600388498,-0.11728612573401895,-0.2932153143350474,-1499,-412,-118,4130,315,100606
12:7:11.422,21603,624.0234375,-284.1796875,-761.71875,0.22602013813326569,-0.1111774733520388,-0.26267205242514663,-1503,-407,-115,4130,315,100606
12:7:11.443,21604,610.3515625,-309.5703125,-755.859375,0.1869247628885927,-0.0989601685880785,-0.2419026343264141,-1500,-412,-117,4130,315,100606
12:7:11.464,21605,603.515625,-310.546875,-778.3203125,0.13316862192716736,-0.09040805525330627,-0.22479840765686968,-1488,-409,-122,4130,315,100606
12:7:11.484,21606,595.703125,-300.78125,-795.8984375,0.16737707526625623,-0.0830776723949301,-0.17715091907742447,-1502,-412,-123,4130,315,100606
12:7:11.494,21607,584.9609375,-292.96875,-810.546875,0.21746802479849348,-0.07452555906015788,-0.15638150097869194,-1501,-417,-124,4130,315,100606
12:7:11.536,21608,566.40625,-298.828125,-810.546875,0.2614503219487506,-0.06475171524898964,-0.13683381335635544,-1507,-413,-122,4130,315,100606
12:7:11.557,21609,554.6875,-304.6875,-805.6640625,0.2724458962363148,-0.04276056667386108,-0.11606439525762292,-1504,-411,-119,4130,315,100606
12:7:11.567,21610,545.8984375,-308.59375,-803.7109375,0.2651155133779387,-0.009773843811168246,-0.1148426647812269,-1503,-414,-106,4130,315,100606
12:7:11.587,21611,541.9921875,-328.125,-814.453125,0.23945917337362205,0.024434609527920613,-0.12217304763960309,-1499,-413,-115,4130,315,100606
12:7:11.608,21612,540.0390625,-332.03125,-820.3125,0.22846359908605776,0.03543018381548489,-0.13805554383275148,-1485,-415,-114,4130,315,100606
12:7:11.628,21613,523.4375,-357.421875,-805.6640625,0.29688050576423547,0.06841690667817772,-0.16004669240788005,-1501,-417,-120,4130,315,100606
12:7:11.649,21614,500.9765625,-373.046875,-793.9453125,0.3274237676741363,0.0830776723949301,-0.18448130193580062,-1500,-421,-117,4130,315,100606
12:7:11.659,21615,486.328125,-386.71875,-786.1328125,0.3139847324337799,0.10018189906447451,-0.2516764781375823,-1498,-419,-112,4130,315,100606
12:7:11.680,21616,477.5390625,-399.4140625,-765.625,0.32375857624494814,0.11239920382843484,-0.3005456971934236,-1499,-419,-122,4130,315,100606
12:7:11.700,21617,456.0546875,-424.8046875,-761.71875,0.3738495257771854,0.12095131716320705,-0.3909537524467298,-1494,-424,-117,4130,315,100606
12:7:11.721,21618,418.9453125,-427.734375,-747.0703125,0.39461894387591795,0.1343903524035634,-0.48991392103480835,-1498,-426,-110,4130,315,100606
12:7:11.731,21619,415.0390625,-444.3359375,-710.9375,0.40072759625789806,0.14905111812031577,-0.5962044724812631,-1477,-423,-122,4130,315,100606
12:7:11.751,21620,498.046875,-452.1484375,-677.734375,0.39706240482871,0.1502728485967118,-0.7195992505972622,-1494,-418,-113,4130,315,100606
12:7:11.772,21621,561.5234375,-455.078125,-670.8984375,0.36163222101322506,0.16004669240788005,-0.8662069077647858,-1495,-423,-125,4130,315,100606
12:7:11.813,21622,628.90625,-462.890625,-677.734375,0.37018433434799736,0.14416419621473164,-1.0079276430267254,-1483,-423,-112,4130,315,100606
12:7:11.823,21623,705.078125,-464.84375,-655.2734375,0.34086280291449256,0.051312680008633295,-1.2461650859239515,-1491,-420,-113,4130,315,100606
12:7:11.843,21624,771.484375,-460.9375,-627.9296875,0.38484510006474965,-0.04031710572106901,-1.3817771688039107,-1490,-410,-112,4130,315,100606
12:7:11.864,21625,830.078125,-459.9609375,-630.859375,0.4801400772236401,-0.1429424657383356,-1.4917329116795537,-1493,-408,-125,4130,315,100606
12:7:11.884,21626,869.140625,-444.3359375,-649.4140625,0.5375614096142536,-0.2345722514680379,-1.5723671231216916,-1484,-403,-116,4130,315,100606
12:7:11.904,21627,898.4375,-436.5234375,-642.578125,0.5375614096142536,-0.3274237676741363,-1.6310101859887012,-1501,-404,-112,4124,315,100605
12:7:11.914,21628,930.6640625,-424.8046875,-616.2109375,0.437379510549779,-0.38362336958835364,-1.6713272917097701,-1500,-397,-105,4124,315,100605
12:7:11.956,21629,935.546875,-402.34375,-611.328125,0.3127630019573839,-0.47280969436526393,-1.7104226669544431,-1505,-391,-112,4124,315,100605
12:7:11.977,21630,918.9453125,-335.9375,-628.90625,0.2687807048071268,-0.5693264020005504,-1.743409389817136,-1511,-384,-98,4124,315,100605
12:7:11.987,21631,875.9765625,-260.7421875,-683.59375,0.3078760800517997,-0.7476990515543708,-1.8106045660189176,-1521,-372,-104,4124,315,100605
12:7:12.7,21632,852.5390625,-250.9765625,-685.546875,0.21991148575128555,-0.8515461420480335,-1.8142697574481057,-1521,-372,-97,4124,315,100605
12:7:12.28,21633,827.1484375,-278.3203125,-656.25,0.020769418098732523,-0.9773843811168247,-1.8093828355425217,-1517,-350,-69,4124,315,100605
12:7:12.48,21634,771.484375,-168.9453125,-717.7734375,-0.1392772743091475,-1.0629055144645467,-1.7751743822034327,-1527,-349,-77,4124,315,100605
12:7:12.58,21635,690.4296875,20.5078125,-794.921875,-0.0024434609527920616,-1.1374310735247046,-1.7641788079158685,-1559,-344,-76,4124,315,100605
12:7:12.99,21636,666.9921875,27.34375,-785.15625,0.2956587752878394,-1.2058479802028823,-1.749518042199116,-1566,-338,-73,4124,315,100605
12:7:12.121,21637,662.109375,-79.1015625,-768.5546875,0.4447098934081552,-1.263269312593496,-1.7922786088729772,-1583,-342,-67,4124,315,100605
12:7:12.131,21638,635.7421875,-162.109375,-743.1640625,0.3274237676741363,-1.2815952697394362,-1.8313739841176502,-1598,-335,-58,4124,315,100605
12:7:12.151,21639,603.515625,-82.03125,-766.6015625,-0.013439035240356337,-1.2559389297351196,-1.8570303241219668,-1605,-330,-47,4124,315,100605
12:7:12.172,21640,538.0859375,29.296875,-848.6328125,-0.37507125625358145,-1.2901473830742083,-1.951103570804461,-1617,-325,-63,4124,315,100605
12:7:12.193,21641,453.125,100.5859375,-876.953125,-0.4434881629317592,-1.391551012615079,-1.981646832714362,-1642,-317,-54,4124,315,100605
12:7:12.213,21642,355.46875,103.515625,-865.234375,-0.48747046008201633,-1.4697417631044252,-1.9853120241435502,-1651,-311,-53,4124,315,100605
12:7:12.223,21643,253.90625,149.4140625,-882.8125,-0.6218608124855797,-1.5454890526409788,-1.9596556841392334,-1677,-302,-48,4124,315,100605
12:7:12.244,21644,110.3515625,230.46875,-959.9609375,-0.6878342582109653,-1.5821409669328599,-1.8594737850747587,-1695,-291,-54,4124,315,100605
12:7:12.264,21645,-16.6015625,291.9921875,-1010.7421875,-0.6072000467688273,-1.5589280878813352,-1.7226399717184033,-1706,-291,-46,4124,315,100605
12:7:12.285,21646,-69.3359375,264.6484375,-973.6328125,-0.4214970143566306,-1.4135421611902077,-1.5222761735894546,-1726,-281,-48,4124,315,100605
12:7:12.306,21647,-94.7265625,223.6328125,-927.734375,-0.2553416695667704,-1.1997393278209023,-1.2596041211643076,-1743,-277,-43,4124,315,100605
12:7:12.316,21648,-105.46875,236.328125,-924.8046875,-0.14049900478554353,-0.7806857744170637,-0.8307767239493008,-1752,-277,-46,4124,315,100605
12:7:12.336,21649,-143.5546875,282.2265625,-982.421875,-0.05375614096142535,-0.4532620067429274,-0.515570261039125,-1763,-282,-39,4124,315,100605
12:7:12.378,21650,-153.3203125,293.9453125,-1024.4140625,0.05375614096142535,-0.11239920382843484,-0.16249015336067207,-1763,-280,-39,4124,315,100605
12:7:12.388,21651,-169.921875,297.8515625,-995.1171875,0.07330382858376185,0.22724186860966175,0.2309070600388498,-1770,-283,-41,4124,315,100605
12:7:12.408,21652,-152.34375,290.0390625,-930.6640625,0.012217304763960306,0.5229006438975012,0.6438519610607082,-1759,-282,-38,4124,315,100605
12:7:12.428,21653,-86.9140625,292.96875,-910.15625,0.05009094953223726,0.7452555906015788,1.0592403230353586,-1754,-281,-39,4124,315,100605
12:7:12.448,21654,-12.6953125,289.0625,-938.4765625,0.2504547476611863,0.8979719001510825,1.3829988992803068,-1737,-282,-30,4124,315,100605
12:7:12.469,21655,25.390625,226.5625,-951.171875,0.5424483315198376,1.02503186969627,1.59435827169682,-1728,-289,-39,4124,315,100605
12:7:12.479,21656,58.59375,166.015625,-948.2421875,0.6108652381980153,1.232726050683595,1.7153095888600272,-1711,-296,-39,4124,315,100605
12:7:12.499,21657,167.96875,99.609375,-939.453125,0.35796702958403703,1.312138531649337,1.7690657298214527,-1701,-295,-34,4124,315,100605
12:7:12.519,21658,282.2265625,80.078125,-930.6640625,0.1038470904936626,1.3133602621257332,1.8069393745897295,-1681,-301,-47,4124,315,100605
12:7:12.539,21659,373.046875,92.7734375,-903.3203125,0.021991148575128554,1.26815623449908,1.8509216717399868,-1665,-307,-45,4124,315,100605
12:7:12.560,21660,460.9375,95.703125,-890.625,0.04276056667386108,1.194852405915318,1.8619172460275508,-1658,-309,-53,4124,315,100605
12:7:12.570,21661,507.8125,73.2421875,-924.8046875,0.18570303241219668,1.116661655425972,1.8484782107871944,-1620,-310,-38,4124,315,100605
12:7:12.590,21662,496.09375,84.9609375,-912.109375,0.2883283924294633,1.0812314716104872,1.9144516565125802,-1624,-323,-45,4124,315,100605
12:7:12.610,21663,452.1484375,71.2890625,-856.4453125,0.278554548618295,1.0910053154216555,1.9792033717615696,-1616,-324,-56,4124,315,100605
12:7:12.651,21664,468.75,59.5703125,-806.640625,0.19669860669976097,1.1740829878165857,2.094046036542797,-1600,-332,-57,4124,315,100605
12:7:12.661,21665,560.546875,-22.4609375,-762.6953125,0.06841690667817772,1.1875220230569419,2.1441369860750337,-1588,-341,-69,4124,315,100605
12:7:12.681,21666,646.484375,-86.9140625,-729.4921875,0.026878070480712675,1.1203268468551604,2.2113321622768156,-1581,-351,-63,4124,315,100605
12:7:12.702,21667,683.59375,-191.40625,-672.8515625,-0.048869219055841226,1.0470230182713984,2.1942279356072714,-1563,-362,-68,4124,315,100605
12:7:12.723,21668,749.0234375,-325.1953125,-596.6796875,-0.15271630954950383,0.9395107363485476,2.1306979508346777,-1542,-362,-78,4124,315,100605
12:7:12.733,21669,808.59375,-417.96875,-562.5,-0.2663372438543347,0.8038986534685881,2.025629129864619,-1542,-379,-84,4124,315,100605
12:7:12.753,21670,828.125,-493.1640625,-606.4453125,-0.3066543495754037,0.6230825429619757,1.90223435174862,-1538,-381,-98,4124,315,100605
12:7:12.794,21671,833.984375,-541.9921875,-689.453125,-0.2138028333693054,0.4447098934081552,1.709200936478047,-1532,-388,-102,4124,315,100605
12:7:12.815,21672,829.1015625,-582.03125,-731.4453125,-0.05375614096142535,0.3127630019573839,1.502728485967118,-1525,-398,-87,4124,315,100605
12:7:12.825,21673,812.5,-658.203125,-728.515625,-0.010995574287564277,0.1893682238413848,1.0971139678036357,-1523,-401,-97,4124,315,100605
12:7:12.846,21674,769.53125,-688.4765625,-733.3984375,-0.34330626386728463,0.13316862192716736,0.8075638448977764,-1526,-402,-88,4124,315,100605
12:7:12.866,21675,718.75,-637.6953125,-785.15625,-0.7367034772668065,0.07696902001294993,0.5876523591464908,-1522,-398,-110,4124,315,100605
12:7:12.887,21676,672.8515625,-530.2734375,-808.59375,-0.8930849782454985,0.03543018381548489,0.41783182292744253,-1526,-398,-96,4124,315,100605
12:7:12.897,21677,634.765625,-422.8515625,-801.7578125,-0.7379252077432025,0.024434609527920613,0.27977627909469105,-1522,-390,-98,4130,315,100613
12:7:12.938,21678,608.3984375,-366.2109375,-806.640625,-0.4654793115068877,0.020769418098732523,0.18325957145940464,-1512,-385,-95,4130,315,100613
12:7:12.959,21679,605.46875,-351.5625,-822.265625,-0.2528982086139784,0.0024434609527920616,0.1502728485967118,-1518,-387,-97,4130,315,100613
12:7:12.979,21680,603.515625,-327.1484375,-823.2421875,-0.1710422666954443,-0.03054326190990077,0.14538592669112765,-1529,-393,-101,4130,315,100613
12:7:12.989,21681,594.7265625,-298.828125,-791.9921875,-0.21991148575128555,-0.04398229715025711,0.12217304763960309,-1520,-389,-105,4130,315,100613
12:7:13.10,21682,584.9609375,-279.296875,-772.4609375,-0.2138028333693054,-0.05742133239061345,0.09651670763528641,-1515,-388,-104,4130,315,100613
12:7:13.30,21683,573.2421875,-269.53125,-770.5078125,-0.2296853295624538,-0.0830776723949301,0.08429940287132612,-1523,-383,-100,4130,315,100613
12:7:13.51,21684,573.2421875,-268.5546875,-783.203125,-0.2663372438543347,-0.10995574287564278,0.09162978572970232,-1522,-380,-99,4130,315,100613
12:7:13.61,21685,575.1953125,-245.1171875,-781.25,-0.2467895562319982,-0.1356120828799594,0.09773843811168245,-1524,-382,-103,4130,315,100613
12:7:13.83,21686,576.171875,-230.46875,-781.25,-0.1307251609743753,-0.13683381335635544,0.0830776723949301,-1523,-380,-101,4130,315,100613
12:7:13.103,21687,589.84375,-218.75,-823.2421875,0.04153883619746505,-0.11728612573401895,0.06841690667817772,-1531,-385,-100,4130,315,100613
12:7:13.123,21688,592.7734375,-232.421875,-830.078125,0.09651670763528641,-0.09040805525330627,0.05742133239061345,-1531,-381,-97,4130,315,100613
12:7:13.134,21689,590.8203125,-239.2578125,-828.125,-0.2907718533822553,-0.052534410485029326,0.052534410485029326,-1521,-379,-101,4130,315,100613
12:7:13.154,21690,597.65625,-229.4921875,-834.9609375,-0.09651670763528641,0.010995574287564277,0.08552113334772216,-1529,-382,-112,4130,315,100613
12:7:13.175,21691,604.4921875,-205.078125,-847.65625,-0.10140362954087055,0.05619960191421742,0.1111774733520388,-1531,-387,-93,4130,315,100613
12:7:13.216,21692,616.2109375,-192.3828125,-874.0234375,-0.0158824961931484,0.1111774733520388,0.16737707526625623,-1529,-385,-102,4130,315,100613
12:7:13.227,21693,634.765625,-208.984375,-888.671875,0.07330382858376185,0.1661553447898602,0.21746802479849348,-1531,-382,-98,4130,315,100613
12:7:13.247,21694,668.9453125,-247.0703125,-897.4609375,0.08918632477691024,0.23335052099164189,0.2700024352835228,-1532,-388,-98,4130,315,100613
12:7:13.268,21695,714.84375,-284.1796875,-920.8984375,0.026878070480712675,0.32375857624494814,0.31642819338657197,-1526,-387,-96,4130,315,100613
12:7:13.288,21696,753.90625,-307.6171875,-939.453125,-0.029321531433504737,0.39950586578150205,0.37629298672997746,-1499,-385,-100,4130,315,100613
12:7:13.299,21697,791.9921875,-332.03125,-972.65625,0.052534410485029326,0.4654793115068877,0.44959681531373935,-1514,-394,-103,4130,315,100613
12:7:13.318,21698,824.21875,-365.234375,-965.8203125,0.2895501229058593,0.560774288665778,0.5070181477043528,-1505,-391,-103,4130,315,100613
12:7:13.360,21699,841.796875,-407.2265625,-924.8046875,0.3323106895797204,0.6096435077216195,0.516791991515521,-1501,-400,-106,4130,315,100613
12:7:13.380,21700,851.5625,-445.3125,-896.484375,0.2919935838586513,0.6365215782023321,0.5253441048502933,-1500,-409,-114,4130,315,100613
12:7:13.391,21701,850.5859375,-457.03125,-853.515625,0.2651155133779387,0.6585127267774605,0.5082398781807488,-1499,-409,-120,4130,315,100613
12:7:13.411,21702,833.984375,-449.21875,-803.7109375,0.38362336958835364,0.6487388829662923,0.45814892864851153,-1492,-417,-127,4130,315,100613
12:7:13.432,21703,823.2421875,-456.0546875,-759.765625,0.5546656362837981,0.5913175505756788,0.3738495257771854,-1485,-419,-122,4130,315,100613
12:7:13.452,21704,799.8046875,-434.5703125,-746.09375,0.6695083010650249,0.5009094953223726,0.26389378290154264,-1486,-428,-115,4130,315,100613
12:7:13.463,21705,762.6953125,-418.9453125,-727.5390625,0.6853907972581733,0.4214970143566306,0.17470745812463243,-1483,-435,-128,4130,315,100613
12:7:13.484,21706,740.234375,-420.8984375,-691.40625,0.5363396791378575,0.32498030672134415,0.07941248096574201,-1470,-438,-128,4130,315,100613
12:7:13.504,21707,716.796875,-375.0,-665.0390625,0.4557054676957195,0.3005456971934236,0.021991148575128554,-1481,-444,-123,4130,315,100613
12:7:13.526,21708,693.359375,-322.265625,-642.578125,0.5803219762881145,0.24068090385001806,-0.05497787143782139,-1476,-441,-130,4130,315,100613
12:7:13.546,21709,662.109375,-323.2421875,-609.375,0.7391469382195985,0.16737707526625623,-0.16371188383706814,-1473,-448,-121,4130,315,100613
12:7:13.556,21710,638.671875,-361.328125,-569.3359375,0.7195992505972622,0.08185594191853407,-0.2895501229058593,-1461,-445,-132,4130,315,100613
12:7:13.577,21711,614.2578125,-379.8828125,-532.2265625,0.5351179486614615,-0.007330382858376184,-0.39706240482871,-1473,-458,-137,4130,315,100613
12:7:13.598,21712,582.03125,-364.2578125,-514.6484375,0.3286454981505323,-0.08063421144213802,-0.49968776484597655,-1475,-455,-141,4130,315,100613
12:7:13.628,21713,549.8046875,-300.78125,-489.2578125,0.2736676267127109,-0.14538592669112765,-0.6194173515327875,-1470,-446,-127,4130,315,100613
12:7:13.649,21714,558.59375,-303.7109375,-471.6796875,0.5057964172279568,-0.2614503219487506,-0.8100073058505685,-1470,-452,-133,4130,315,100613
12:7:13.669,21715,585.9375,-372.0703125,-477.5390625,0.42516220578581876,-0.35674529910764097,-0.8894197868163104,-1479,-448,-126,4130,315,100613
12:7:13.690,21716,614.2578125,-397.4609375,-510.7421875,0.1710422666954443,-0.4679227724596798,-0.9346238144429636,-1475,-447,-117,4130,315,100613
12:7:13.710,21717,629.8828125,-377.9296875,-532.2265625,-0.039095375244672985,-0.5754350543825305,-0.9786061115932208,-1476,-442,-119,4130,315,100613
12:7:13.720,21718,665.0390625,-350.5859375,-562.5,-0.10873401239924674,-0.6963863715457376,-1.0494664792241903,-1492,-434,-121,4130,315,100613
12:7:13.742,21719,672.8515625,-338.8671875,-607.421875,-0.0830776723949301,-0.8307767239493008,-1.1313224211427244,-1491,-434,-107,4130,315,100613
12:7:13.784,21720,640.625,-317.3828125,-619.140625,-0.04520402762665313,-0.9786061115932208,-1.2168435544904468,-1497,-426,-115,4130,315,100613
12:7:13.794,21721,614.2578125,-317.3828125,-609.375,-0.05986479334340551,-1.1374310735247046,-1.3023646878381687,-1507,-424,-98,4130,315,100613
12:7:13.814,21722,563.4765625,-298.828125,-614.2578125,-0.15760323145508798,-1.2950343049797925,-1.3829988992803068,-1514,-419,-97,4130,315,100613
12:7:13.835,21723,462.890625,-271.484375,-640.625,-0.29932396671702755,-1.4575244583404645,-1.4917329116795537,-1526,-410,-90,4130,315,100613
12:7:13.855,21724,380.859375,-216.796875,-650.390625,-0.35185837720205687,-1.5320500174006226,-1.5687019316925037,-1536,-399,-85,4130,315,100613
12:7:13.865,21725,284.1796875,-185.546875,-657.2265625,-0.37018433434799736,-1.5552628964521473,-1.6261232640831171,-1550,-389,-72,4130,315,100613
12:7:13.886,21726,218.75,-181.640625,-720.703125,-0.39461894387591795,-1.5112805993018898,-1.6126842288427605,-1559,-380,-70,4130,315,100613
12:7:13.906,21727,154.296875,-147.4609375,-787.109375,-0.5448917924726296,-1.4184290830957917,-1.4917329116795537,-1577,-369,-65,4130,315,100600
12:7:13.926,21728,130.859375,-123.046875,-847.65625,-0.6035348553396392,-1.2974777659325847,-1.2986994964089809,-1578,-365,-59,4130,315,100600
12:7:13.947,21729,92.7734375,-89.84375,-933.59375,-0.5900958200992829,-1.070235897322923,-1.0091493735031216,-1598,-353,-51,4130,315,100600
12:7:13.957,21730,51.7578125,-35.15625,-1016.6015625,-0.48869219055841234,-0.7134905982152819,-0.668286570588629,-1614,-347,-53,4130,315,100600
12:7:13.978,21731,21.484375,9.765625,-1028.3203125,-0.2150245638457014,-0.06597344572538566,-0.08063421144213802,-1615,-343,-56,4130,315,100600
12:7:13.998,21732,70.3125,-4.8828125,-989.2578125,-0.12095131716320705,0.29932396671702755,0.3298672286269283,-1614,-344,-57,4130,315,100600
12:7:14.19,21733,152.34375,-19.53125,-990.234375,0.0671951762017817,0.5729915934297385,0.675616953447005,-1608,-346,-47,4130,315,100600
12:7:14.50,21734,198.2421875,-7.8125,-1004.8828125,0.33719761148530447,0.7953465401338161,0.8857545953871224,-1597,-350,-56,4130,315,100600
12:7:14.70,21735,245.1171875,-36.1328125,-996.09375,0.5424483315198376,0.9724974592112404,1.0213666782670816,-1599,-356,-58,4130,315,100600
12:7:14.91,21736,236.328125,-101.5625,-961.9140625,0.515570261039125,1.1239920382843482,1.0910053154216555,-1588,-360,-61,4130,315,100600
12:7:14.112,21737,236.328125,-137.6953125,-916.015625,0.2858849314766712,1.2534954687823276,1.154535300194249,-1568,-371,-67,4130,315,100600
12:7:14.122,21738,261.71875,-131.8359375,-842.7734375,0.04520402762665313,1.3695598640399507,1.2351695116363872,-1551,-366,-76,4130,315,100600
12:7:14.142,21739,296.875,-111.328125,-805.6640625,-0.1307251609743753,1.4477506145292964,1.3267992973660896,-1549,-376,-81,4130,315,100600
12:7:14.163,21740,330.078125,-94.7265625,-761.71875,-0.13316862192716736,1.4770721459628011,1.354899098323198,-1538,-385,-84,4130,315,100600
12:7:14.194,21741,345.703125,-91.796875,-722.65625,-0.03420845333908886,1.4501940754820886,1.385442360233099,-1529,-387,-92,4130,315,100600
12:7:14.215,21742,389.6484375,-112.3046875,-669.921875,0.03543018381548489,1.4086552392846234,1.4440854231001083,-1519,-395,-102,4130,315,100600
12:7:14.236,21743,454.1015625,-162.109375,-640.625,0.03787364476827696,1.3683381335635545,1.478293876439197,-1502,-402,-111,4130,315,100600
12:7:14.257,21744,536.1328125,-189.453125,-637.6953125,0.003665191429188092,1.3316862192716736,1.4941763726323456,-1493,-407,-114,4130,315,100600
12:7:14.267,21745,583.984375,-202.1484375,-596.6796875,0.004886921905584123,1.26815623449908,1.4318681183361481,-1466,-411,-131,4130,315,100600
12:7:14.288,21746,632.8125,-272.4609375,-531.25,-0.007330382858376184,1.1838568316277538,1.2950343049797925,-1471,-422,-131,4130,315,100600
12:7:14.308,21747,756.8359375,-404.296875,-501.953125,-0.09651670763528641,1.073901088752111,1.0665707058937348,-1469,-424,-126,4130,315,100600
12:7:14.328,21748,910.15625,-471.6796875,-505.859375,-0.27611108766550296,0.8930849782454985,0.911410935391439,-1460,-429,-138,4130,315,100600
12:7:14.339,21749,1015.625,-517.578125,-516.6015625,-0.40317105721069013,0.7476990515543708,0.7635815477475193,-1451,-435,-159,4130,315,100600
12:7:14.359,21750,1078.125,-558.59375,-547.8515625,-0.37018433434799736,0.597426202957659,0.6023131248632432,-1454,-434,-150,4130,315,100600
12:7:14.380,21751,1139.6484375,-603.515625,-570.3125,-0.2419026343264141,0.4654793115068877,0.45204027626653137,-1451,-439,-153,4130,315,100600
12:7:14.400,21752,1179.6875,-641.6015625,-588.8671875,-0.14905111812031577,0.34086280291449256,0.3029891581462157,-1440,-434,-166,4130,315,100600
12:7:14.421,21753,1162.109375,-664.0625,-618.1640625,-0.12217304763960309,0.22479840765686968,0.17592918860102844,-1446,-438,-161,4130,315,100600
12:7:14.431,21754,1123.046875,-638.671875,-627.9296875,-0.15393804002589986,0.1551597705022959,0.05375614096142535,-1443,-439,-155,4130,315,100600
12:7:14.472,21755,1043.9453125,-576.171875,-646.484375,-0.14538592669112765,0.09651670763528641,-0.05986479334340551,-1440,-439,-161,4130,315,100600
12:7:14.493,21756,978.515625,-523.4375,-658.203125,-0.1502728485967118,0.007330382858376184,-0.1356120828799594,-1440,-432,-166,4130,315,100600
12:7:14.503,21757,886.71875,-460.9375,-646.484375,-0.1820378409830086,-0.019547687622336492,-0.13194689145077132,-1443,-430,-170,4130,315,100600
12:7:14.523,21758,814.453125,-412.109375,-617.1875,-0.15271630954950383,-0.05742133239061345,-0.10140362954087055,-1443,-428,-163,4130,315,100600
12:7:14.544,21759,751.953125,-369.140625,-595.703125,-0.052534410485029326,-0.07696902001294993,-0.08429940287132612,-1438,-424,-158,4130,315,100600
12:7:14.564,21760,718.75,-321.2890625,-608.3984375,0.05742133239061345,-0.09040805525330627,-0.07696902001294993,-1442,-427,-171,4130,315,100600
12:7:14.585,21761,698.2421875,-316.40625,-618.1640625,0.14538592669112765,-0.10018189906447451,-0.06230825429619757,-1448,-424,-157,4130,315,100600
12:7:14.616,21762,692.3828125,-329.1015625,-607.421875,0.14049900478554353,-0.1233947781159991,-0.058643062867009474,-1443,-426,-155,4130,315,100600
12:7:14.636,21763,684.5703125,-343.75,-592.7734375,0.0830776723949301,-0.16126842288427604,-0.0635299847725936,-1427,-426,-165,4130,315,100600
12:7:14.656,21764,682.6171875,-330.078125,-601.5625,0.08185594191853407,-0.17959438003021652,-0.0476474885794452,-1446,-430,-157,4130,315,100600
12:7:14.666,21765,686.5234375,-318.359375,-613.28125,0.1478293876439197,-0.18570303241219668,-0.05375614096142535,-1448,-434,-153,4130,315,100600
12:7:14.687,21766,687.5,-327.1484375,-612.3046875,0.1734857276482364,-0.1820378409830086,-0.05375614096142535,-1440,-430,-155,4130,315,100600
12:7:14.707,21767,690.4296875,-334.9609375,-630.859375,0.14416419621473164,-0.17592918860102844,-0.052534410485029326,-1448,-436,-157,4130,315,100600
12:7:14.728,21768,673.828125,-325.1953125,-638.671875,0.08552113334772216,-0.16004669240788005,-0.03543018381548489,-1453,-435,-155,4130,315,100600
12:7:14.748,21769,674.8046875,-317.3828125,-632.8125,0.05009094953223726,-0.1466076571675237,-0.0317649923862968,-1454,-437,-151,4130,315,100600
12:7:14.758,21770,666.015625,-312.5,-637.6953125,0.03665191429188092,-0.11239920382843484,-0.01710422666954443,-1454,-436,-151,4130,315,100600
12:7:14.778,21771,662.109375,-315.4296875,-633.7890625,0.029321531433504737,-0.09285151620609834,0.008552113334772215,-1456,-439,-136,4130,315,100600
12:7:14.799,21772,663.0859375,-313.4765625,-645.5078125,0.006108652381980153,-0.07819075048934597,0.019547687622336492,-1457,-436,-142,4130,315,100600
12:7:14.820,21773,649.4140625,-301.7578125,-666.015625,-0.021991148575128554,-0.0476474885794452,0.025656340004316647,-1440,-432,-146,4130,315,100600
12:7:14.840,21774,639.6484375,-301.7578125,-652.34375,-0.05009094953223726,-0.03787364476827696,0.048869219055841226,-1455,-434,-152,4130,315,100600
12:7:14.850,21775,631.8359375,-292.96875,-652.34375,-0.07574728953655392,-0.04398229715025711,0.09162978572970232,-1454,-436,-145,4130,315,100600
12:7:14.891,21776,616.2109375,-282.2265625,-666.015625,-0.09162978572970232,-0.058643062867009474,0.14172073526193957,-1450,-436,-144,4130,315,100600
12:7:14.912,21777,599.609375,-273.4375,-664.0625,-0.11850785621041499,-0.07819075048934597,0.2028072590817411,-1454,-436,-143,4124,315,100605
12:7:14.922,21778,575.1953125,-254.8828125,-661.1328125,-0.15882496193148402,-0.10262536001726659,0.2944370448114434,-1455,-436,-148,4124,315,100605
12:7:14.942,21779,540.0390625,-225.5859375,-658.203125,-0.24068090385001806,-0.1429424657383356,0.39339721339952194,-1459,-437,-130,4124,315,100605
12:7:14.963,21780,500.9765625,-175.78125,-689.453125,-0.2419026343264141,-0.17592918860102844,0.4825835381764321,-1453,-436,-147,4124,315,100605
12:7:14.983,21781,487.3046875,-167.96875,-698.2421875,-0.12095131716320705,-0.2101376419401173,0.6267477343911638,-1458,-438,-148,4124,315,100605
12:7:15.34,21782,491.2109375,-230.46875,-624.0234375,-0.1466076571675237,-0.22846359908605776,0.7147123286916779,-1462,-441,-143,4124,315,100605
12:7:15.54,21783,494.140625,-288.0859375,-577.1484375,-0.2932153143350474,-0.2553416695667704,0.8100073058505685,-1460,-443,-140,4124,315,100605
12:7:15.75,21784,519.53125,-311.5234375,-592.7734375,-0.40927970959267035,-0.31764992386296803,0.8503244115716375,-1469,-448,-132,4124,315,100605
12:7:15.85,21785,568.359375,-341.796875,-619.140625,-0.3811799086355616,-0.41172317054546237,0.8454374896660533,-1471,-452,-126,4124,315,100605
12:7:15.105,21786,584.9609375,-373.046875,-627.9296875,-0.3200933848157601,-0.5119050696099369,0.8222246106145287,-1477,-455,-130,4124,315,100605
12:7:15.126,21787,579.1015625,-410.15625,-608.3984375,-0.2712241657599188,-0.597426202957659,0.7611380867947273,-1465,-448,-118,4124,315,100605
12:7:15.147,21788,609.375,-470.703125,-606.4453125,-0.31520646291017596,-0.6462954220135002,0.670730031541421,-1487,-458,-128,4124,315,100605
12:7:15.168,21789,613.28125,-499.0234375,-623.046875,-0.5778785153353226,-0.7159340591680741,0.5387831400906496,-1493,-459,-109,4124,315,100605
12:7:15.178,21790,618.1640625,-517.578125,-649.4140625,-0.748920782030767,-0.7757988525114795,0.46303585055409563,-1495,-457,-117,4124,315,100605
12:7:15.198,21791,651.3671875,-526.3671875,-678.7109375,-0.7586946258419351,-0.8454374896660533,0.37507125625358145,-1501,-454,-113,4124,315,100605
12:7:15.219,21792,648.4375,-518.5546875,-692.3828125,-0.6658431096358368,-0.8735372906231619,0.28344147052387914,-1509,-449,-100,4124,315,100605
12:7:15.239,21793,646.484375,-558.59375,-687.5,-0.5717698629533424,-0.908967474438647,0.20036379812894903,-1513,-451,-99,4124,315,100605
12:7:15.250,21794,677.734375,-611.328125,-659.1796875,-0.6255260039147678,-0.9370672753957556,0.1111774733520388,-1520,-441,-94,4124,315,100605
12:7:15.270,21795,696.2890625,-660.15625,-669.921875,-0.7220427115500542,-1.0164797563614976,0.008552113334772215,-1534,-441,-93,4124,315,100605
12:7:15.291,21796,708.0078125,-615.234375,-721.6796875,-0.7159340591680741,-1.111774733520388,-0.0989601685880785,-1541,-438,-77,4124,315,100605
12:7:15.311,21797,691.40625,-572.265625,-784.1796875,-0.39950586578150205,-1.2938125745033966,-0.2712241657599188,-1546,-435,-90,4124,315,100605
12:7:15.331,21798,668.9453125,-572.265625,-770.5078125,-0.26267205242514663,-1.3829988992803068,-0.36896260387160124,-1561,-431,-78,4124,315,100605
12:7:15.342,21799,638.671875,-586.9140625,-733.3984375,-0.27611108766550296,-1.4599679192932566,-0.4557054676957195,-1571,-428,-63,4124,315,100605
12:7:15.362,21800,588.8671875,-555.6640625,-724.609375,-0.35185837720205687,-1.5577063574049392,-0.516791991515521,-1578,-422,-63,4124,315,100605
12:7:15.383,21801,526.3671875,-447.265625,-809.5703125,-0.2871066619530672,-1.6444492212290573,-0.594982742004867,-1587,-415,-67,4124,315,100605
12:7:15.404,21802,492.1875,-403.3203125,-870.1171875,-0.12950343049797927,-1.7263051631475914,-0.6499606134426883,-1613,-412,-44,4124,315,100605
12:7:15.425,21803,453.125,-422.8515625,-829.1015625,-0.05497787143782139,-1.7739526517270368,-0.7391469382195985,-1618,-416,-46,4124,315,100605
12:7:15.455,21804,420.8984375,-460.9375,-804.6875,-0.10995574287564278,-1.781283034585413,-0.8295549934729048,-1639,-411,-36,4124,315,100605
12:7:15.476,21805,357.421875,-340.8203125,-904.296875,-0.08796459430051422,-1.7715091907742448,-0.8967501696746865,-1657,-412,-35,4124,315,100605
12:7:15.496,21806,298.828125,-235.3515625,-1016.6015625,0.2101376419401173,-1.7727309212506406,-0.9712757287348445,-1670,-409,-38,4124,315,100605
12:7:15.506,21807,292.96875,-240.234375,-982.421875,0.3078760800517997,-1.795943800302165,-1.0103711039795176,-1689,-415,-34,4124,315,100605
12:7:15.527,21808,312.5,-374.0234375,-886.71875,0.11728612573401895,-1.7873916869673931,-1.0641272449409427,-1696,-401,-29,4124,315,100605
12:7:15.548,21809,325.1953125,-442.3828125,-902.34375,0.013439035240356337,-1.7678439993450565,-1.1753047182929817,-1714,-409,-29,4124,315,100605
12:7:15.569,21810,263.671875,-298.828125,-1017.578125,0.19669860669976097,-1.7373007374351557,-1.3585642897523862,-1737,-409,-19,4124,315,100605
12:7:15.579,21811,103.515625,-190.4296875,-1156.25,0.4569271981721155,-1.745852850769928,-1.5503759745465633,-1750,-407,-21,4124,315,100605
12:7:15.599,21812,-67.3828125,-204.1015625,-1170.8984375,0.43493604959698695,-1.7373007374351557,-1.6603317174222059,-1767,-413,-26,4124,315,100605
12:7:15.620,21813,-199.21875,-275.390625,-1019.53125,0.03543018381548489,-1.6920967098085025,-1.7128661279072352,-1786,-414,-18,4124,315,100605
12:7:15.640,21814,-373.046875,-325.1953125,-929.6875,-0.7501425125071629,-1.4294246573833558,-1.6163494202719488,-1808,-414,-30,4124,315,100605
12:7:15.661,21815,-542.96875,-189.453125,-1032.2265625,-0.8674286382411819,-1.1276572297135363,-1.4746286850100092,-1799,-406,-24,4124,315,100605
12:7:15.671,21816,-618.1640625,-39.0625,-1137.6953125,-0.6951646410693415,-0.7990117315630041,-1.2608258516407038,-1820,-402,-24,4124,315,100605
12:7:15.692,21817,-625.9765625,-65.4296875,-1139.6484375,-0.5913175505756788,-0.4813618077000361,-0.915076126820627,-1835,-399,-37,4124,315,100605
12:7:15.733,21818,-580.078125,-116.2109375,-1077.1484375,-0.6866125277345693,-0.16249015336067207,-0.5082398781807488,-1835,-397,-38,4124,315,100605
12:7:15.744,21819,-522.4609375,-66.40625,-1077.1484375,-0.6365215782023321,0.1478293876439197,-0.11362093430483088,-1838,-392,-36,4124,315,100605
12:7:15.764,21820,-468.75,-35.15625,-1116.2109375,-0.34941491624926485,0.39706240482871,0.20891591146372127,-1833,-384,-37,4124,315,100605
12:7:15.785,21821,-396.484375,-46.875,-1106.4453125,0.014660765716752368,0.5998696639104512,0.4447098934081552,-1832,-387,-31,4124,315,100605
12:7:15.805,21822,-326.171875,-92.7734375,-1096.6796875,0.22602013813326569,0.8381071068076771,0.6524040743954804,-1810,-386,-39,4124,315,100605
12:7:15.826,21823,-299.8046875,-166.9921875,-1117.1875,0.12583823906879116,1.0274753306490618,0.751364242983559,-1813,-389,-37,4124,315,100605
12:7:15.836,21824,-270.5078125,-182.6171875,-1131.8359375,-0.021991148575128554,1.230282589730803,0.8307767239493008,-1801,-385,-41,4124,315,100605
12:7:15.876,21825,-250.0,-155.2734375,-1156.25,-0.08552113334772216,1.4135421611902077,0.8967501696746865,-1788,-385,-34,4124,315,100605
12:7:15.897,21826,-233.3984375,-134.765625,-1173.828125,-0.09407324668249437,1.6175711507483448,1.0140362954087057,-1757,-377,-34,4124,315,100605
12:7:15.917,21827,-222.65625,-103.515625,-1169.921875,-0.11606439525762292,1.8313739841176502,1.1814133706749619,-1761,-382,-35,4130,315,100608
12:7:15.927,21828,-140.625,-82.03125,-1167.96875,-0.1343903524035634,2.0415116260577673,1.3072516097437528,-1738,-380,-28,4130,315,100608
12:7:15.947,21829,-59.5703125,-60.546875,-1170.8984375,-0.04520402762665313,2.217440814658796,1.3829988992803068,-1710,-381,-29,4130,315,100608
12:7:15.968,21830,50.78125,-86.9140625,-1120.1171875,0.14538592669112765,2.301740217530122,1.3805554383275147,-1687,-383,-33,4130,315,100608
12:7:15.988,21831,175.78125,-203.125,-993.1640625,0.1734857276482364,2.2809707994313895,1.2986994964089809,-1674,-388,-36,4130,315,100608
12:7:15.998,21832,318.359375,-333.0078125,-861.328125,0.06841690667817772,2.1441369860750337,1.1753047182929817,-1653,-393,-37,4130,315,100608
12:7:16.19,21833,437.5,-429.6875,-715.8203125,0.0158824961931484,1.9083430041306,0.998153799215557,-1630,-389,-41,4130,315,100608
12:7:16.39,21834,528.3203125,-471.6796875,-644.53125,0.10262536001726659,1.618792881224741,0.7965682706102121,-1616,-394,-48,4130,315,100608
12:7:16.59,21835,560.546875,-462.890625,-635.7421875,0.2186897552748895,1.3243558364132975,0.6035348553396392,-1596,-398,-53,4130,315,100608
12:7:16.80,21836,610.3515625,-509.765625,-585.9375,0.2614503219487506,1.0079276430267254,0.40194932673429407,-1593,-402,-67,4130,315,100608
12:7:16.90,21837,628.90625,-524.4140625,-567.3828125,0.1893682238413848,0.7318165553612224,0.2235766771804736,-1592,-401,-57,4130,315,100608
12:7:16.110,21838,618.1640625,-510.7421875,-591.796875,0.06230825429619757,0.4825835381764321,0.10262536001726659,-1580,-404,-66,4130,315,100608
12:7:16.151,21839,605.46875,-462.890625,-617.1875,0.023212879051524585,0.18081611050661253,-0.05497787143782139,-1574,-405,-71,4130,315,100608
12:7:16.162,21840,563.4765625,-398.4375,-674.8046875,0.08185594191853407,0.06108652381980154,-0.12095131716320705,-1581,-406,-66,4130,315,100608
12:7:16.182,21841,526.3671875,-348.6328125,-729.4921875,0.16004669240788005,0.004886921905584123,-0.16249015336067207,-1578,-409,-60,4130,315,100608
12:7:16.202,21842,501.953125,-317.3828125,-740.234375,0.197920337176157,-0.03054326190990077,-0.19303341527057283,-1580,-408,-66,4130,315,100608
12:7:16.223,21843,484.375,-313.4765625,-779.296875,0.1356120828799594,-0.05742133239061345,-0.19181168479417682,-1575,-406,-64,4130,315,100608
12:7:16.243,21844,467.7734375,-292.96875,-823.2421875,0.06475171524898964,-0.0830776723949301,-0.19181168479417682,-1585,-408,-59,4130,315,100608
12:7:16.254,21845,449.21875,-278.3203125,-838.8671875,0.021991148575128554,-0.10140362954087055,-0.16371188383706814,-1584,-406,-63,4130,315,100608
12:7:16.295,21846,430.6640625,-257.8125,-866.2109375,0.05497787143782139,-0.10629055144645469,-0.14538592669112765,-1583,-411,-55,4130,315,100608
12:7:16.315,21847,410.15625,-250.0,-898.4375,0.1343903524035634,-0.10018189906447451,-0.11362093430483088,-1582,-406,-74,4130,315,100608
12:7:16.335,21848,402.34375,-290.0390625,-908.203125,0.0830776723949301,-0.0867428638241182,-0.0989601685880785,-1585,-408,-64,4130,315,100608
12:7:16.345,21849,393.5546875,-293.9453125,-913.0859375,-0.009773843811168246,-0.07208209810736582,-0.07330382858376185,-1587,-411,-65,4130,315,100608
12:7:16.366,21850,385.7421875,-281.25,-920.8984375,-0.009773843811168246,-0.05742133239061345,-0.06597344572538566,-1571,-400,-64,4130,315,100608
12:7:16.386,21851,385.7421875,-291.9921875,-924.8046875,0.05986479334340551,-0.05009094953223726,-0.06963863715457375,-1591,-403,-53,4130,315,100608
12:7:16.407,21852,384.765625,-322.265625,-920.8984375,0.12217304763960309,-0.02809980095710871,-0.10140362954087055,-1585,-404,-58,4130,315,100608
12:7:16.417,21853,380.859375,-341.796875,-921.875,0.1551597705022959,-0.02809980095710871,-0.13805554383275148,-1587,-404,-65,4130,315,100608
12:7:16.439,21854,367.1875,-363.28125,-928.7109375,0.17837264955382048,-0.01710422666954443,-0.20158552860534507,-1589,-405,-64,4130,315,100608
12:7:16.459,21855,352.5390625,-376.953125,-917.96875,0.18570303241219668,-0.012217304763960306,-0.32253684576855207,-1587,-404,-65,4130,315,100608
12:7:16.480,21856,334.9609375,-388.671875,-918.9453125,0.15638150097869194,0.0024434609527920616,-0.42394047530942264,-1588,-408,-56,4130,315,100608
12:7:16.490,21857,322.265625,-386.71875,-916.015625,0.1478293876439197,0.03054326190990077,-0.516791991515521,-1576,-402,-56,4130,315,100608
12:7:16.510,21858,320.3125,-388.671875,-911.1328125,0.1307251609743753,0.0476474885794452,-0.6133086991508074,-1587,-412,-58,4130,315,100608
12:7:16.531,21859,317.3828125,-384.765625,-905.2734375,0.09773843811168245,0.05375614096142535,-0.7220427115500542,-1591,-405,-64,4130,315,100608
12:7:16.572,21860,307.6171875,-381.8359375,-897.4609375,0.06597344572538566,0.06108652381980154,-0.8161159582325487,-1589,-402,-67,4130,315,100608
12:7:16.582,21861,309.5703125,-384.765625,-886.71875,0.04153883619746505,0.06841690667817772,-0.910189204915043,-1589,-401,-61,4130,315,100608
12:7:16.603,21862,312.5,-391.6015625,-882.8125,0.04276056667386108,0.0671951762017817,-1.0164797563614976,-1591,-399,-58,4130,315,100608
12:7:16.624,21863,308.59375,-386.71875,-873.046875,0.05619960191421742,0.06841690667817772,-1.1386528040011008,-1595,-397,-67,4130,315,100608
12:7:16.635,21864,291.9921875,-378.90625,-876.953125,0.0635299847725936,0.05619960191421742,-1.3463469849884258,-1587,-390,-56,4130,315,100608
12:7:16.655,21865,267.578125,-373.046875,-862.3046875,0.048869219055841226,0.06963863715457375,-1.5112805993018898,-1591,-388,-63,4130,315,100608
12:7:16.675,21866,268.5546875,-381.8359375,-847.65625,-0.0158824961931484,0.07574728953655392,-1.6811011355209384,-1593,-380,-59,4130,315,100608
12:7:16.716,21867,265.625,-372.0703125,-831.0546875,-0.12217304763960309,0.051312680008633295,-1.8472564803107985,-1590,-370,-70,4130,315,100608
12:7:16.727,21868,250.0,-333.0078125,-800.78125,-0.24068090385001806,0.029321531433504737,-2.029294321293807,-1590,-368,-71,4130,315,100608
12:7:16.747,21869,236.328125,-315.4296875,-765.625,-0.3677408733952052,-0.0012217304763960308,-2.22843638894636,-1597,-360,-63,4130,315,100608
12:7:16.768,21870,278.3203125,-259.765625,-779.296875,-0.4459316238845512,-0.024434609527920613,-2.416582882311349,-1595,-347,-60,4130,315,100608
12:7:16.789,21871,321.2890625,-192.3828125,-791.015625,-0.4679227724596798,-0.05375614096142535,-2.560747078526081,-1594,-332,-67,4130,315,100608
12:7:16.799,21872,337.890625,-113.28125,-806.640625,-0.4544837372193235,-0.13194689145077132,-2.736676267127109,-1610,-326,-71,4130,315,100608
12:7:16.820,21873,333.0078125,-59.5703125,-783.203125,-0.4557054676957195,-0.20402898955813717,-2.845410279526356,-1619,-306,-57,4130,315,100608
12:7:16.840,21874,324.21875,-16.6015625,-763.671875,-0.5338962181850655,-0.25900686099595854,-2.926044490968494,-1622,-305,-54,4130,315,100608
12:7:16.861,21875,327.1484375,32.2265625,-735.3515625,-0.6255260039147678,-0.3457497248200767,-2.995683128123068,-1634,-289,-57,4130,315,100608
12:7:16.882,21876,330.078125,104.4921875,-722.65625,-0.7330382858376185,-0.43493604959698695,-3.039665425273325,-1648,-272,-53,4130,315,100608
12:7:16.892,21877,309.5703125,180.6640625,-717.7734375,-0.7501425125071629,-0.5363396791378575,-3.084869452899978,-1658,-264,-62,4124,315,100605
12:7:16.913,21878,288.0859375,203.125,-673.828125,-0.7073819458333017,-0.668286570588629,-3.1374038633850074,-1664,-250,-67,4124,315,100605
12:7:16.934,21879,257.8125,208.0078125,-633.7890625,-0.8405505677604692,-0.8087855753741724,-3.1716123167240964,-1696,-240,-63,4124,315,100605
12:7:16.954,21880,225.5859375,303.7109375,-655.2734375,-1.3011429573617728,-1.0018189906447452,-3.1410690548141953,-1711,-235,-76,4124,315,100605
12:7:16.985,21881,198.2421875,363.28125,-678.7109375,-1.497841564061534,-1.1630874135290212,-3.158173281483739,-1731,-215,-71,4124,315,100605
12:7:17.5,21882,166.015625,430.6640625,-678.7109375,-1.5063936773963058,-1.306029879267357,-3.138625593861403,-1765,-203,-81,4124,315,100605
12:7:17.26,21883,135.7421875,426.7578125,-620.1171875,-1.4196508135721877,-1.4269811964305639,-3.0970867576639383,-1780,-201,-79,4124,315,100605
12:7:17.46,21884,77.1484375,470.703125,-581.0546875,-1.4269811964305639,-1.4917329116795537,-3.1166344452862744,-1809,-192,-76,4124,315,100605
12:7:17.56,21885,4.8828125,527.34375,-604.4921875,-1.3658946726107624,-1.5393804002589986,-3.1117475233806906,-1829,-179,-91,4124,315,100605
12:7:17.76,21886,-39.0625,563.4765625,-688.4765625,-1.1875220230569419,-1.5442673221645826,-3.133738671955819,-1860,-180,-97,4124,315,100605
12:7:17.97,21887,-54.6875,581.0546875,-723.6328125,-0.956614963018092,-1.5088371383490977,-3.1508428986253634,-1893,-174,-111,4124,315,100605
12:7:17.127,21888,-90.8203125,563.4765625,-719.7265625,-0.7806857744170637,-1.472185224057217,-3.1606167424365315,-1921,-185,-115,4124,315,100605
12:7:17.147,21889,-168.9453125,528.3203125,-701.171875,-0.9248499706317953,-1.4184290830957917,-3.220481535779937,-1932,-184,-116,4124,315,100605
12:7:17.168,21890,-282.2265625,562.5,-696.2890625,-1.2351695116363872,-1.3573425592759902,-3.2436944148314617,-1954,-190,-130,4124,315,100605
12:7:17.189,21891,-378.90625,638.671875,-738.28125,-1.5638150097869192,-1.2950343049797925,-3.218038074827145,-2000,-199,-154,4124,315,100605
12:7:17.209,21892,-449.21875,689.453125,-737.3046875,-1.826487062212066,-1.2974777659325847,-3.1545080900545512,-2000,-199,-160,4124,315,100605
12:7:17.280,21893,-495.1171875,697.265625,-714.84375,-2.0390681651049753,-1.3402383326064458,-3.0469958081317006,-2038,-209,-174,4124,315,100605
12:7:17.291,21894,-544.921875,689.453125,-657.2265625,-2.190562744178083,-1.3952162040442673,-2.9309314128740778,-2065,-219,-188,4124,315,100605
12:7:17.311,21895,-594.7265625,703.125,-614.2578125,-2.227214658469964,-1.4184290830957917,-2.8502972014319394,-2077,-217,-218,4124,315,100605
12:7:17.332,21896,-649.4140625,781.25,-579.1015625,-2.136806603216658,-1.4489723450056926,-2.7867672166593462,-2105,-223,-230,4124,315,100605
12:7:17.352,21897,-704.1015625,871.09375,-556.640625,-1.5332717478770188,-1.466076571675237,-2.7220155014103566,-2121,-237,-241,4124,315,100605
12:7:17.373,21898,-746.09375,855.46875,-523.4375,-1.0592403230353586,-1.497841564061534,-2.6462682118738026,-2145,-256,-262,4124,315,100605
12:7:17.383,21899,-778.3203125,804.6875,-477.5390625,-0.7257079029792424,-1.5503759745465633,-2.537534199474556,-2138,-257,-267,4124,315,100605
12:7:17.403,21900,-790.0390625,758.7890625,-507.8125,-0.4300491276914028,-1.583362697409256,-2.4116959604057646,-2170,-281,-295,4124,315,100605
12:7:17.424,21901,-816.40625,728.515625,-513.671875,-0.2138028333693054,-1.6542230650402259,-2.224771197517172,-2188,-307,-287,4124,315,100605
12:7:17.444,21902,-872.0703125,703.125,-487.3046875,-0.09040805525330627,-1.6920967098085025,-2.0415116260577673,-2187,-314,-319,4124,315,100605
12:7:17.464,21903,-910.15625,685.546875,-438.4765625,-0.07208209810736582,-1.7214182412420074,-1.8448130193580066,-2202,-329,-327,4124,315,100605
12:7:17.475,21904,-896.484375,672.8515625,-422.8515625,-0.039095375244672985,-1.7067574755252548,-1.6615534478986016,-2210,-339,-342,4124,315,100605
12:7:17.495,21905,-896.484375,658.203125,-427.734375,0.10506882097005865,-1.7201965107656112,-1.3585642897523862,-2215,-347,-360,4124,315,100605
12:7:17.516,21906,-917.96875,617.1875,-389.6484375,0.197920337176157,-1.7421876593407397,-1.1863002925805461,-2217,-359,-364,4124,315,100605
12:7:17.536,21907,-941.40625,597.65625,-342.7734375,0.28099800957108706,-1.755626694581096,-1.0494664792241903,-2221,-367,-389,4124,315,100605
12:7:17.546,21908,-971.6796875,588.8671875,-387.6953125,0.40317105721069013,-1.7421876593407397,-0.9456193887305279,-2225,-374,-393,4124,315,100605
12:7:17.566,21909,-983.3984375,518.5546875,-458.984375,0.4276056667386108,-1.6798794050445423,-0.8222246106145287,-2229,-386,-422,4124,315,100605
12:7:17.587,21910,-944.3359375,442.3828125,-411.1328125,0.16982053621904827,-1.5906930802676322,-0.6902777191637574,-2234,-387,-416,4124,315,100605
12:7:17.607,21911,-948.2421875,447.265625,-309.5703125,-0.2345722514680379,-1.5528194354993552,-0.6133086991508074,-2229,-390,-429,4124,315,100605
12:7:17.628,21912,-953.125,496.09375,-367.1875,-0.4459316238845512,-1.4844025288211775,-0.6120869686744114,-2232,-399,-451,4124,315,100605
12:7:17.638,21913,-957.03125,483.3984375,-420.8984375,-0.3274237676741363,-1.4269811964305639,-0.5766567848589266,-2230,-395,-468,4124,315,100605
12:7:17.659,21914,-963.8671875,443.359375,-341.796875,-0.33108895910332437,-1.3194689145077132,-0.4948008429403924,-2230,-405,-473,4124,315,100605
12:7:17.679,21915,-965.8203125,411.1328125,-276.3671875,-0.5375614096142536,-1.2351695116363872,-0.4838052686528282,-2229,-412,-489,4124,315,100605
12:7:17.700,21916,-1005.859375,424.8046875,-254.8828125,-0.6963863715457376,-1.1740829878165857,-0.4801400772236401,-2226,-412,-485,4124,315,100605
12:7:17.710,21917,-1008.7890625,453.125,-265.625,-0.6218608124855797,-1.1301006906663282,-0.4459316238845512,-2230,-419,-497,4124,315,100605
12:7:17.731,21918,-983.3984375,470.703125,-258.7890625,-0.2895501229058593,-1.1276572297135363,-0.40317105721069013,-2228,-422,-497,4124,315,100605
12:7:17.751,21919,-966.796875,450.1953125,-324.21875,0.11850785621041499,-1.0958922373272395,-0.35063664672566086,-2228,-425,-523,4124,315,100605
12:7:17.772,21920,-967.7734375,336.9140625,-304.6875,0.22724186860966175,-1.0238101392198737,-0.2700024352835228,-2218,-422,-518,4124,315,100605
12:7:17.792,21921,-974.609375,250.0,-231.4453125,-0.12828170002158323,-0.8857545953871224,-0.19914206765255302,-2217,-424,-527,4124,315,100605
12:7:17.802,21922,-978.515625,291.9921875,-185.546875,-0.751364242983559,-0.63407811724954,-0.17959438003021652,-2218,-431,-552,4124,315,100605
12:7:17.823,21923,-958.0078125,397.4609375,-187.5,-0.7159340591680741,-0.5119050696099369,-0.12461650859239513,-2220,-432,-552,4124,315,100605
12:7:17.843,21924,-965.8203125,473.6328125,-180.6640625,-0.2712241657599188,-0.4654793115068877,-0.0635299847725936,-2221,-435,-550,4124,315,100605
12:7:17.864,21925,-1043.9453125,498.046875,-250.0,0.5338962181850655,-0.3872885610175418,-0.020769418098732523,-2218,-435,-559,4124,315,100605
12:7:17.875,21926,-1083.0078125,333.984375,-382.8125,1.1924089449625261,-0.16982053621904827,-0.025656340004316647,-2220,-435,-569,4124,315,100605
12:7:17.895,21927,-1048.828125,206.0546875,-367.1875,1.317025453554921,-0.05009094953223726,-0.04031710572106901,-2200,-425,-562,4130,315,100613
12:7:17.915,21928,-995.1171875,175.78125,-251.953125,1.0482447487477944,-0.023212879051524585,-0.03298672286269283,-2220,-427,-556,4130,315,100613
12:7:17.935,21929,-967.7734375,204.1015625,-130.859375,0.7867944267990439,-0.06597344572538566,-0.012217304763960306,-2215,-424,-559,4130,315,100613
12:7:17.966,21930,-953.125,268.5546875,-44.921875,0.7049384848805097,-0.1343903524035634,0.024434609527920613,-2217,-423,-560,4130,315,100613
12:7:17.987,21931,-958.984375,329.1015625,25.390625,0.912632665867835,-0.1710422666954443,0.06230825429619757,-2225,-423,-565,4130,315,100613
12:7:18.8,21932,-959.9609375,309.5703125,51.7578125,1.106887811614804,-0.17226399717184035,0.07330382858376185,-2222,-413,-577,4130,315,100613
12:7:18.29,21933,-936.5234375,228.515625,77.1484375,1.1325441516191206,-0.13683381335635544,0.06230825429619757,-2217,-415,-569,4130,315,100613
12:7:18.39,21934,-910.15625,181.640625,82.03125,0.8833111344343304,-0.08552113334772216,0.02809980095710871,-2203,-406,-569,4130,315,100613
12:7:18.60,21935,-895.5078125,199.21875,58.59375,0.5253441048502933,-0.039095375244672985,-0.020769418098732523,-2214,-407,-574,4130,315,100613
12:7:18.80,21936,-891.6015625,243.1640625,35.15625,0.26389378290154264,-0.010995574287564277,-0.06597344572538566,-2219,-408,-565,4130,315,100613
12:7:18.121,21937,-891.6015625,265.625,19.53125,0.09651670763528641,-0.013439035240356337,-0.0635299847725936,-2217,-405,-571,4130,315,100613
12:7:18.131,21938,-900.390625,264.6484375,15.625,-0.01710422666954443,-0.01832595714594046,-0.03543018381548489,-2216,-409,-569,4130,315,100613
12:7:18.152,21939,-922.8515625,285.15625,24.4140625,-0.14905111812031577,-0.03543018381548489,-0.013439035240356337,-2213,-404,-576,4130,315,100613
12:7:18.172,21940,-939.453125,308.59375,12.6953125,-0.14538592669112765,-0.05619960191421742,0.0024434609527920616,-2218,-406,-554,4130,315,100613
12:7:18.193,21941,-945.3125,326.171875,5.859375,-0.06230825429619757,-0.06963863715457375,0.019547687622336492,-2215,-404,-574,4130,315,100613
12:7:18.203,21942,-955.078125,325.1953125,-1.953125,0.01710422666954443,-0.09162978572970232,0.026878070480712675,-2216,-405,-561,4130,315,100613
12:7:18.224,21943,-970.703125,317.3828125,-23.4375,0.10506882097005865,-0.10506882097005865,0.04520402762665313,-2217,-404,-568,4130,315,100613
12:7:18.244,21944,-972.65625,292.96875,-60.546875,0.18814649336498873,-0.07941248096574201,0.029321531433504737,-2204,-399,-569,4130,315,100613
12:7:18.265,21945,-960.9375,245.1171875,-86.9140625,0.23579398194443396,-0.03665191429188092,-0.003665191429188092,-2214,-404,-568,4130,315,100613
12:7:18.285,21946,-956.0546875,225.5859375,-101.5625,0.1905899543177808,-0.007330382858376184,-0.03543018381548489,-2215,-404,-563,4130,315,100613
12:7:18.296,21947,-956.0546875,226.5625,-97.65625,0.09773843811168245,0.0,-0.06475171524898964,-2211,-406,-571,4130,315,100613
12:7:18.316,21948,-958.0078125,240.234375,-74.21875,0.11972958668681102,-0.004886921905584123,-0.05375614096142535,-2211,-406,-562,4130,315,100613
12:7:18.336,21949,-957.03125,248.046875,-44.921875,0.1551597705022959,-0.01710422666954443,-0.03665191429188092,-2213,-403,-585,4130,315,100613
12:7:18.357,21950,-955.078125,248.046875,-26.3671875,0.16982053621904827,-0.019547687622336492,-0.024434609527920613,-2212,-404,-572,4130,315,100613
12:7:18.387,21951,-955.078125,248.046875,-22.4609375,0.1478293876439197,-0.012217304763960306,-0.026878070480712675,-2213,-399,-579,4130,315,100613
12:7:18.408,21952,-948.2421875,254.8828125,-9.765625,0.0867428638241182,0.012217304763960306,-0.03787364476827696,-2212,-399,-563,4130,315,100613
12:7:18.428,21953,-937.5,263.671875,2.9296875,0.023212879051524585,0.021991148575128554,-0.05375614096142535,-2210,-404,-574,4130,315,100613
12:7:18.448,21954,-931.640625,279.296875,4.8828125,-0.021991148575128554,0.02809980095710871,-0.04520402762665313,-2202,-396,-560,4130,315,100613
12:7:18.459,21955,-924.8046875,285.15625,-0.0,-0.01832595714594046,0.026878070480712675,-0.03054326190990077,-2206,-404,-574,4130,315,100613
12:7:18.479,21956,-935.546875,296.875,-2.9296875,0.019547687622336492,0.019547687622336492,-0.0158824961931484,-2214,-403,-572,4130,315,100613
12:7:18.499,21957,-934.5703125,283.203125,-4.8828125,0.0158824961931484,0.0158824961931484,-0.007330382858376184,-2219,-403,-573,4130,315,100613
12:7:18.540,21958,-941.40625,269.53125,-9.765625,-0.06108652381980154,0.024434609527920613,0.008552113334772215,-2219,-403,-576,4130,315,100613
12:7:18.550,21959,-945.3125,272.4609375,-6.8359375,-0.12461650859239513,0.01710422666954443,0.03054326190990077,-2216,-401,-578,4130,315,100613
12:7:18.571,21960,-942.3828125,287.109375,-9.765625,-0.13683381335635544,0.01710422666954443,0.04153883619746505,-2217,-404,-568,4130,315,100613
12:7:18.592,21961,-943.359375,281.25,-13.671875,-0.10506882097005865,0.0158824961931484,0.05375614096142535,-2215,-402,-570,4130,315,100613
12:7:18.613,21962,-945.3125,282.2265625,-16.6015625,-0.05009094953223726,-0.0012217304763960308,0.05619960191421742,-2198,-398,-573,4130,315,100613
12:7:18.634,21963,-944.3359375,284.1796875,-16.6015625,0.020769418098732523,-0.009773843811168246,0.0476474885794452,-2211,-398,-575,4130,315,100613
12:7:18.644,21964,-945.3125,265.625,-24.4140625,0.09162978572970232,-0.01832595714594046,0.02809980095710871,-2210,-399,-561,4130,315,100613
12:7:18.664,21965,-947.265625,241.2109375,-24.4140625,0.05619960191421742,-0.010995574287564277,0.019547687622336492,-2212,-400,-577,4130,315,100613
12:7:18.685,21966,-948.2421875,243.1640625,-26.3671875,0.01710422666954443,0.003665191429188092,0.006108652381980153,-2215,-398,-565,4130,315,100613
12:7:18.705,21967,-943.359375,250.9765625,-31.25,0.013439035240356337,0.007330382858376184,0.0024434609527920616,-2210,-397,-572,4130,315,100613
12:7:18.716,21968,-941.40625,247.0703125,-28.3203125,0.008552113334772215,0.014660765716752368,0.007330382858376184,-2218,-402,-578,4130,315,100613
12:7:18.736,21969,-949.21875,250.9765625,-28.3203125,0.004886921905584123,0.0158824961931484,-0.008552113334772215,-2214,-402,-579,4130,315,100613
12:7:18.757,21970,-952.1484375,261.71875,-29.296875,0.01710422666954443,0.01710422666954443,-0.01710422666954443,-2215,-403,-574,4130,315,100613
12:7:18.777,21971,-958.0078125,252.9296875,-25.390625,0.010995574287564277,0.013439035240356337,-0.020769418098732523,-2215,-399,-577,4130,315,100613
12:7:18.808,21972,-947.265625,252.9296875,-23.4375,-0.05986479334340551,0.03054326190990077,-0.007330382858376184,-2198,-396,-583,4130,315,100613
12:7:18.828,21973,-937.5,265.625,-25.390625,-0.05619960191421742,0.029321531433504737,-0.010995574287564277,-2216,-403,-583,4130,315,100613
12:7:18.849,21974,-942.3828125,275.390625,-22.4609375,-0.009773843811168246,0.0317649923862968,-0.013439035240356337,-2214,-400,-580,4130,315,100613
12:7:18.869,21975,-944.3359375,277.34375,-21.484375,0.02809980095710871,0.03543018381548489,-0.01710422666954443,-2212,-403,-573,4130,315,100613
12:7:18.889,21976,-943.359375,268.5546875,-21.484375,0.020769418098732523,0.03665191429188092,-0.019547687622336492,-2199,-396,-567,4130,315,100613
12:7:18.900,21977,-939.453125,278.3203125,-22.4609375,0.003665191429188092,0.03543018381548489,-0.01710422666954443,-2217,-404,-584,4130,315,100613
12:7:18.920,21978,-947.265625,277.34375,-19.53125,0.004886921905584123,0.025656340004316647,-0.023212879051524585,-2214,-402,-575,4130,315,100613
12:7:18.961,21979,-944.3359375,273.4375,-16.6015625,-0.012217304763960306,0.03543018381548489,-0.023212879051524585,-2217,-401,-582,4130,315,100613
12:7:18.971,21980,-938.4765625,273.4375,-19.53125,-0.0476474885794452,0.02809980095710871,-0.0158824961931484,-2213,-403,-580,4130,315,100613
12:7:18.991,21981,-937.5,277.34375,-19.53125,-0.029321531433504737,0.020769418098732523,-0.020769418098732523,-2214,-401,-584,4130,315,100613
12:7:19.12,21982,-939.453125,283.203125,-15.625,0.0,0.021991148575128554,-0.023212879051524585,-2219,-403,-566,4130,315,100613
12:7:19.33,21983,-938.4765625,277.34375,-13.671875,0.01832595714594046,0.019547687622336492,-0.013439035240356337,-2204,-401,-567,4130,315,100613
12:7:19.54,21984,-940.4296875,273.4375,-14.6484375,0.010995574287564277,0.013439035240356337,-0.0158824961931484,-2211,-406,-573,4130,315,100613
12:7:19.64,21985,-943.359375,279.296875,-20.5078125,0.0,0.008552113334772215,-0.009773843811168246,-2206,-404,-575,4130,315,100613
12:7:19.85,21986,-948.2421875,279.296875,-20.5078125,-0.009773843811168246,0.004886921905584123,-0.006108652381980153,-2208,-404,-559,4130,315,100613
12:7:19.106,21987,-949.21875,270.5078125,-19.53125,-0.01710422666954443,0.019547687622336492,-0.012217304763960306,-2215,-404,-575,4130,315,100613
12:7:19.127,21988,-939.453125,271.484375,-19.53125,-0.029321531433504737,0.026878070480712675,-0.012217304763960306,-2214,-400,-571,4130,315,100613
12:7:19.137,21989,-936.5234375,274.4140625,-28.3203125,-0.02809980095710871,0.023212879051524585,-0.010995574287564277,-2216,-402,-575,4130,315,100613
12:7:19.157,21990,-940.4296875,273.4375,-30.2734375,-0.02809980095710871,0.019547687622336492,-0.012217304763960306,-2206,-402,-562,4130,315,100613
12:7:19.178,21991,-943.359375,279.296875,-26.3671875,-0.003665191429188092,0.009773843811168246,-0.03054326190990077,-2212,-405,-582,4130,315,100613
12:7:19.198,21992,-947.265625,280.2734375,-21.484375,0.01710422666954443,0.01710422666954443,-0.025656340004316647,-2212,-403,-573,4130,315,100613
12:7:19.229,21993,-942.3828125,273.4375,-25.390625,0.01710422666954443,0.014660765716752368,-0.0158824961931484,-2207,-408,-567,4130,315,100613
12:7:19.250,21994,-939.453125,268.5546875,-27.34375,-0.0158824961931484,0.010995574287564277,-0.0024434609527920616,-2212,-407,-566,4130,315,100613
12:7:19.271,21995,-940.4296875,269.53125,-29.296875,-0.03665191429188092,0.019547687622336492,-0.0024434609527920616,-2217,-406,-573,4130,315,100613
12:7:19.281,21996,-940.4296875,277.34375,-22.4609375,-0.026878070480712675,0.0158824961931484,-0.008552113334772215,-2216,-404,-569,4130,315,100613
12:7:19.302,21997,-940.4296875,281.25,-26.3671875,0.013439035240356337,0.01832595714594046,0.0,-2208,-403,-580,4130,315,100613
12:7:19.322,21998,-939.453125,272.4609375,-28.3203125,0.008552113334772215,0.013439035240356337,0.007330382858376184,-2216,-401,-570,4130,315,100613
12:7:19.342,21999,-954.1015625,270.5078125,-28.3203125,-0.012217304763960306,0.025656340004316647,0.0024434609527920616,-2215,-405,-571,4130,315,100613
12:7:19.383,22000,-956.0546875,278.3203125,-28.3203125,-0.01832595714594046,0.03787364476827696,0.0024434609527920616,-2208,-403,-575,4130,315,100613
12:7:19.393,22001,-958.984375,266.6015625,-28.3203125,-0.04398229715025711,0.03543018381548489,0.01832595714594046,-2218,-405,-570,4130,315,100613
12:7:19.414,22002,-953.125,265.625,-22.4609375,-0.06475171524898964,0.04031710572106901,0.01710422666954443,-2214,-408,-564,4130,315,100613
12:7:19.434,22003,-942.3828125,271.484375,-32.2265625,-0.04398229715025711,0.03054326190990077,0.014660765716752368,-2214,-405,-570,4130,315,100613
12:7:19.455,22004,-934.5703125,281.25,-40.0390625,0.010995574287564277,0.01710422666954443,-0.007330382858376184,-2197,-402,-558,4130,315,100613
12:7:19.465,22005,-940.4296875,276.3671875,-36.1328125,0.07330382858376185,0.004886921905584123,-0.04276056667386108,-2216,-405,-572,4130,315,100613
12:7:19.485,22006,-944.3359375,267.578125,-34.1796875,0.06597344572538566,0.019547687622336492,-0.04031710572106901,-2218,-407,-578,4130,315,100613
12:7:19.506,22007,-938.4765625,262.6953125,-35.15625,0.04398229715025711,0.03298672286269283,-0.04153883619746505,-2216,-407,-583,4130,315,100613
12:7:19.526,22008,-940.4296875,277.34375,-29.296875,0.02809980095710871,0.04276056667386108,-0.03298672286269283,-2216,-407,-566,4130,315,100613
12:7:19.537,22009,-945.3125,281.25,-26.3671875,0.014660765716752368,0.048869219055841226,-0.0158824961931484,-2213,-411,-575,4130,315,100613
12:7:19.557,22010,-936.5234375,273.4375,-38.0859375,-0.0024434609527920616,0.051312680008633295,-0.0024434609527920616,-2220,-407,-578,4130,315,100613
12:7:19.578,22011,-941.40625,272.4609375,-31.25,-0.03054326190990077,0.03298672286269283,0.01710422666954443,-2209,-402,-569,4130,315,100613
12:7:19.598,22012,-949.21875,284.1796875,-25.390625,-0.0317649923862968,0.03665191429188092,0.03298672286269283,-2215,-407,-572,4130,315,100613
12:7:19.618,22013,-949.21875,290.0390625,-21.484375,0.004886921905584123,0.04642575810304917,0.04520402762665313,-2216,-405,-574,4130,315,100613
12:7:19.649,22014,-944.3359375,284.1796875,-22.4609375,0.008552113334772215,0.04520402762665313,0.05009094953223726,-2210,-405,-564,4130,315,100613
12:7:19.670,22015,-937.5,282.2265625,-32.2265625,-0.0012217304763960308,0.04031710572106901,0.051312680008633295,-2216,-409,-575,4130,315,100613
12:7:19.690,22016,-934.5703125,277.34375,-34.1796875,0.004886921905584123,0.03420845333908886,0.05009094953223726,-2213,-410,-572,4130,315,100613
12:7:19.701,22017,-935.546875,269.53125,-34.1796875,-0.0012217304763960308,0.01710422666954443,0.051312680008633295,-2215,-399,-569,4130,315,100613
12:7:19.721,22018,-927.734375,274.4140625,-30.2734375,0.006108652381980153,0.012217304763960306,0.023212879051524585,-2202,-395,-561,4130,315,100613
12:7:19.742,22019,-917.96875,286.1328125,-32.2265625,0.06108652381980154,0.014660765716752368,0.009773843811168246,-2214,-401,-555,4130,315,100613
12:7:19.762,22020,-923.828125,277.34375,-23.4375,0.10018189906447451,0.0024434609527920616,0.0,-2214,-400,-570,4130,315,100613
12:7:19.793,22021,-933.59375,278.3203125,-20.5078125,0.09407324668249437,-0.0024434609527920616,-0.008552113334772215,-2210,-401,-562,4130,315,100613
12:7:19.813,22022,-934.5703125,271.484375,-24.4140625,0.07208209810736582,-0.007330382858376184,-0.004886921905584123,-2217,-396,-573,4130,315,100613
12:7:19.834,22023,-934.5703125,277.34375,-22.4609375,0.0476474885794452,-0.012217304763960306,-0.0012217304763960308,-2219,-398,-573,4130,315,100613
12:7:19.854,22024,-943.359375,285.15625,-21.484375,0.051312680008633295,-0.01832595714594046,0.003665191429188092,-2218,-403,-561,4130,315,100613
12:7:19.865,22025,-941.40625,288.0859375,-17.578125,0.06230825429619757,-0.0158824961931484,0.013439035240356337,-2219,-396,-576,4130,315,100613
12:7:19.885,22026,-943.359375,287.109375,-22.4609375,0.06597344572538566,-0.0158824961931484,0.026878070480712675,-2214,-398,-563,4130,315,100613
12:7:19.905,22027,-949.21875,290.0390625,-21.484375,0.0635299847725936,-0.024434609527920613,0.03420845333908886,-2218,-401,-569,4130,315,100611
12:7:19.925,22028,-950.1953125,286.1328125,-23.4375,0.05619960191421742,-0.01832595714594046,0.03665191429188092,-2208,-392,-578,4130,315,100611
12:7:19.946,22029,-950.1953125,285.15625,-26.3671875,0.03543018381548489,-0.023212879051524585,0.04520402762665313,-2215,-396,-571,4130,315,100611
12:7:19.956,22030,-948.2421875,286.1328125,-32.2265625,0.019547687622336492,-0.013439035240356337,0.04520402762665313,-2214,-397,-557,4130,315,100611
12:7:19.976,22031,-948.2421875,289.0625,-26.3671875,0.03054326190990077,-0.012217304763960306,0.029321531433504737,-2217,-395,-569,4130,315,100611
12:7:19.996,22032,-951.171875,290.0390625,-31.25,0.04520402762665313,-0.0024434609527920616,0.026878070480712675,-2211,-392,-573,4130,315,100611
12:7:20.17,22033,-946.2890625,290.0390625,-33.203125,0.05375614096142535,-0.008552113334772215,0.025656340004316647,-2216,-398,-569,4130,315,100611
12:7:20.38,22034,-947.265625,288.0859375,-41.9921875,0.07208209810736582,-0.009773843811168246,0.029321531433504737,-2218,-396,-569,4130,315,100611
12:7:20.68,22035,-942.3828125,290.0390625,-43.9453125,0.10018189906447451,0.0,0.0317649923862968,-2218,-395,-574,4130,315,100611
12:7:20.89,22036,-944.3359375,286.1328125,-44.921875,0.11239920382843484,0.008552113334772215,0.02809980095710871,-2219,-396,-570,4130,315,100611
12:7:20.109,22037,-944.3359375,279.296875,-48.828125,0.0867428638241182,0.0158824961931484,0.026878070480712675,-2218,-396,-575,4130,315,100611
12:7:20.119,22038,-940.4296875,282.2265625,-55.6640625,0.07330382858376185,0.03420845333908886,0.020769418098732523,-2217,-395,-569,4130,315,100611
12:7:20.139,22039,-939.453125,283.203125,-51.7578125,0.07330382858376185,0.04031710572106901,0.020769418098732523,-2198,-384,-579,4130,315,100611
12:7:20.159,22040,-938.4765625,286.1328125,-46.875,0.06963863715457375,0.04031710572106901,0.0158824961931484,-2217,-390,-572,4130,315,100611
12:7:20.180,22041,-940.4296875,288.0859375,-50.78125,0.07208209810736582,0.04398229715025711,0.003665191429188092,-2217,-389,-565,4130,315,100611
12:7:20.210,22042,-943.359375,292.96875,-45.8984375,0.09651670763528641,0.03543018381548489,0.0,-2214,-390,-567,4130,315,100611
12:7:20.231,22043,-941.40625,298.828125,-43.9453125,0.12828170002158323,0.03543018381548489,-0.01710422666954443,-2218,-391,-569,4130,315,100611
12:7:20.251,22044,-934.5703125,293.9453125,-48.828125,0.13194689145077132,0.03787364476827696,-0.03054326190990077,-2217,-392,-564,4130,315,100611
12:7:20.272,22045,-937.5,288.0859375,-43.9453125,0.1233947781159991,0.051312680008633295,-0.03420845333908886,-2212,-393,-552,4130,315,100611
12:7:20.292,22046,-933.59375,291.9921875,-41.9921875,0.1148426647812269,0.05375614096142535,-0.03054326190990077,-2207,-389,-559,4130,315,100611
