Timestamp,SampleNr,AccX [mg],AccY [mg],AccZ [mg],GyrX [rad/s],GyrY [rad/s],GyrZ [rad/s],MagX [mGs],MagY [mGs],-MagZ [mGs],Battery [mV],Temperature [0.1C],Pressure[Pa]
12:14:12.230,3596,16.6015625,538.0859375,-829.1015625,-0.014660765716752368,0.003665191429188092,-0.021991148575128554,-2261,-2072,-2091,3820,311,100681
12:14:12.250,3597,18.5546875,532.2265625,-838.8671875,-0.020769418098732523,-0.014660765716752368,-0.03054326190990077,-2260,-2074,-2091,3820,311,100681
12:14:12.271,3598,12.6953125,541.015625,-839.84375,-0.013439035240356337,0.007330382858376184,-0.01832595714594046,-2258,-2075,-2085,3820,311,100681
12:14:12.291,3599,13.671875,528.3203125,-834.9609375,0.003665191429188092,0.009773843811168246,-0.0158824961931484,-2261,-2072,-2083,3820,311,100681
12:14:12.302,3600,18.5546875,521.484375,-844.7265625,0.021991148575128554,0.006108652381980153,-0.013439035240356337,-2261,-2073,-2085,3820,311,100681
12:14:12.322,3601,10.7421875,524.4140625,-840.8203125,-0.01710422666954443,0.008552113334772215,-0.0012217304763960308,-2261,-2071,-2083,3820,311,100681
12:14:12.342,3602,15.625,541.015625,-822.265625,-0.024434609527920613,0.020769418098732523,0.0,-2259,-2077,-2083,3826,311,100677
12:14:12.363,3603,12.6953125,537.109375,-831.0546875,-0.003665191429188092,-0.0012217304763960308,0.007330382858376184,-2263,-2077,-2087,3826,311,100677
12:14:12.373,3604,12.6953125,525.390625,-843.75,-0.009773843811168246,-0.0024434609527920616,0.009773843811168246,-2261,-2071,-2088,3826,311,100677
12:14:12.393,3605,18.5546875,530.2734375,-848.6328125,0.006108652381980153,0.004886921905584123,-0.007330382858376184,-2264,-2069,-2091,3826,311,100677
12:14:12.414,3606,20.5078125,533.203125,-856.4453125,-0.009773843811168246,0.019547687622336492,-0.010995574287564277,-2265,-2069,-2082,3826,311,100677
12:14:12.434,3607,28.3203125,541.9921875,-843.75,-0.007330382858376184,0.009773843811168246,0.0,-2259,-2071,-2085,3826,311,100677
12:14:12.454,3608,23.4375,529.296875,-843.75,-0.012217304763960306,0.003665191429188092,-0.0024434609527920616,-2236,-2066,-2084,3826,311,100677
12:14:12.474,3609,21.484375,522.4609375,-838.8671875,-0.024434609527920613,0.003665191429188092,0.0024434609527920616,-2261,-2072,-2097,3826,311,100677
12:14:12.484,3610,17.578125,538.0859375,-843.75,-0.04398229715025711,0.008552113334772215,0.006108652381980153,-2262,-2075,-2089,3826,311,100677
12:14:12.504,3611,19.53125,542.96875,-848.6328125,-0.04031710572106901,-0.010995574287564277,0.0012217304763960308,-2260,-2076,-2091,3826,311,100677
12:14:12.525,3612,24.4140625,535.15625,-845.703125,-0.020769418098732523,-0.020769418098732523,-0.013439035240356337,-2259,-2067,-2088,3826,311,100677
12:14:12.545,3613,20.5078125,532.2265625,-834.9609375,-0.0012217304763960308,-0.026878070480712675,0.0012217304763960308,-2262,-2066,-2087,3826,311,100677
12:14:12.555,3614,19.53125,540.0390625,-843.75,0.01832595714594046,-0.03298672286269283,0.0012217304763960308,-2261,-2072,-2085,3826,311,100677
12:14:12.575,3615,17.578125,546.875,-837.890625,0.004886921905584123,-0.004886921905584123,0.007330382858376184,-2245,-2065,-2092,3826,311,100677
12:14:12.595,3616,16.6015625,542.96875,-837.890625,-0.010995574287564277,-0.024434609527920613,0.0,-2261,-2070,-2091,3826,311,100677
12:14:12.616,3617,18.5546875,542.96875,-833.984375,-0.013439035240356337,-0.02809980095710871,-0.006108652381980153,-2266,-2074,-2077,3826,311,100677
12:14:12.636,3618,16.6015625,522.4609375,-835.9375,-0.03420845333908886,-0.021991148575128554,-0.0012217304763960308,-2262,-2065,-2084,3826,311,100677
12:14:12.646,3619,17.578125,533.203125,-840.8203125,-0.025656340004316647,-0.007330382858376184,0.003665191429188092,-2257,-2067,-2090,3826,311,100677
12:14:12.667,3620,14.6484375,549.8046875,-824.21875,0.004886921905584123,-0.004886921905584123,-0.0024434609527920616,-2262,-2067,-2090,3826,311,100677
12:14:12.688,3621,24.4140625,542.96875,-833.984375,0.0024434609527920616,0.009773843811168246,-0.007330382858376184,-2264,-2071,-2093,3826,311,100677
12:14:12.708,3622,14.6484375,533.203125,-829.1015625,0.019547687622336492,0.008552113334772215,-0.012217304763960306,-2264,-2074,-2083,3826,311,100677
12:14:12.729,3623,15.625,542.96875,-831.0546875,-0.0024434609527920616,0.006108652381980153,0.0,-2264,-2076,-2084,3826,311,100677
12:14:12.739,3624,19.53125,538.0859375,-836.9140625,-0.0024434609527920616,-0.0024434609527920616,0.0,-2263,-2076,-2089,3826,311,100677
12:14:12.760,3625,24.4140625,540.0390625,-845.703125,-0.009773843811168246,0.007330382858376184,0.0024434609527920616,-2259,-2074,-2076,3826,311,100677
12:14:12.780,3626,24.4140625,552.734375,-846.6796875,-0.008552113334772215,0.0012217304763960308,0.006108652381980153,-2258,-2076,-2084,3826,311,100677
12:14:12.800,3627,20.5078125,542.96875,-846.6796875,0.012217304763960306,0.007330382858376184,0.0,-2262,-2073,-2096,3826,311,100677
12:14:12.810,3628,14.6484375,527.34375,-843.75,0.023212879051524585,-0.026878070480712675,0.0,-2262,-2071,-2080,3826,311,100677
12:14:12.831,3629,20.5078125,544.921875,-848.6328125,0.024434609527920613,-0.029321531433504737,-0.0012217304763960308,-2258,-2071,-2087,3826,311,100677
12:14:12.851,3630,20.5078125,550.78125,-841.796875,0.013439035240356337,-0.012217304763960306,-0.004886921905584123,-2258,-2068,-2084,3826,311,100677
12:14:12.871,3631,20.5078125,523.4375,-845.703125,-0.007330382858376184,-0.025656340004316647,-0.0024434609527920616,-2260,-2076,-2086,3826,311,100677
12:14:12.892,3632,20.5078125,529.296875,-843.75,-0.02809980095710871,-0.039095375244672985,0.0,-2260,-2074,-2078,3826,311,100677
12:14:12.902,3633,10.7421875,552.734375,-841.796875,-0.006108652381980153,-0.03054326190990077,-0.0012217304763960308,-2254,-2071,-2083,3826,311,100677
12:14:12.922,3634,20.5078125,550.78125,-834.9609375,0.019547687622336492,-0.026878070480712675,0.0,-2260,-2072,-2080,3826,311,100677
12:14:12.943,3635,16.6015625,530.2734375,-847.65625,0.014660765716752368,-0.03054326190990077,-0.010995574287564277,-2263,-2070,-2093,3826,311,100677
12:14:12.964,3636,6.8359375,542.96875,-834.9609375,0.0158824961931484,-0.020769418098732523,-0.021991148575128554,-2236,-2066,-2085,3826,311,100677
12:14:12.975,3637,13.671875,527.34375,-830.078125,-0.3066543495754037,-0.04031710572106901,-0.014660765716752368,-2258,-2076,-2079,3826,311,100677
12:14:12.995,3638,12.6953125,531.25,-834.9609375,0.0,-0.020769418098732523,0.0024434609527920616,-2261,-2078,-2080,3826,311,100677
12:14:13.16,3639,14.6484375,543.9453125,-828.125,-0.019547687622336492,-0.012217304763960306,-0.010995574287564277,-2259,-2080,-2090,3826,311,100677
12:14:13.37,3640,19.53125,536.1328125,-827.1484375,-0.020769418098732523,-0.01710422666954443,0.0,-2260,-2077,-2091,3826,311,100677
12:14:13.110,3641,12.6953125,525.390625,-833.0078125,0.006108652381980153,-0.02809980095710871,-0.01832595714594046,-2258,-2078,-2096,3826,311,100677
12:14:13.130,3642,18.5546875,531.25,-823.2421875,0.0012217304763960308,-0.003665191429188092,-0.0012217304763960308,-2259,-2070,-2091,3826,311,100677
12:14:13.141,3643,20.5078125,555.6640625,-839.84375,0.020769418098732523,0.0024434609527920616,-0.012217304763960306,-2254,-2075,-2085,3826,311,100677
12:14:13.162,3644,12.6953125,541.9921875,-835.9375,-0.004886921905584123,0.010995574287564277,-0.009773843811168246,-2256,-2071,-2091,3826,311,100677
12:14:13.182,3645,13.671875,513.671875,-833.984375,-0.01710422666954443,0.010995574287564277,-0.009773843811168246,-2261,-2069,-2078,3826,311,100677
12:14:13.203,3646,13.671875,532.2265625,-836.9140625,-0.03787364476827696,-0.004886921905584123,0.003665191429188092,-2258,-2071,-2083,3826,311,100677
12:14:13.214,3647,18.5546875,548.828125,-830.078125,-0.07086036763096978,0.013439035240356337,0.007330382858376184,-2248,-2065,-2089,3826,311,100677
12:14:13.234,3648,9.765625,536.1328125,-848.6328125,-0.051312680008633295,-0.01710422666954443,0.010995574287564277,-2258,-2074,-2079,3826,311,100677
12:14:13.255,3649,6.8359375,543.9453125,-847.65625,-0.01832595714594046,-0.0024434609527920616,-0.0012217304763960308,-2263,-2073,-2084,3826,311,100677
12:14:13.275,3650,18.5546875,551.7578125,-844.7265625,0.004886921905584123,-0.007330382858376184,0.013439035240356337,-2262,-2069,-2096,3826,311,100677
12:14:13.285,3651,14.6484375,547.8515625,-841.796875,0.03787364476827696,-0.012217304763960306,0.0024434609527920616,-2262,-2066,-2091,3826,311,100677
12:14:13.306,3652,13.671875,539.0625,-839.84375,0.0,-0.01710422666954443,0.02809980095710871,-2263,-2068,-2087,3814,311,100676
12:14:13.326,3653,11.71875,537.109375,-827.1484375,-0.03054326190990077,-0.020769418098732523,0.009773843811168246,-2263,-2075,-2090,3814,311,100676
12:14:13.346,3654,20.5078125,533.203125,-837.890625,-0.03787364476827696,-0.03420845333908886,0.009773843811168246,-2245,-2067,-2091,3814,311,100676
12:14:13.367,3655,7.8125,541.015625,-840.8203125,-0.03787364476827696,-0.01832595714594046,0.006108652381980153,-2259,-2069,-2085,3814,311,100676
12:14:13.377,3656,15.625,557.6171875,-839.84375,-0.012217304763960306,-0.023212879051524585,0.0,-2262,-2066,-2099,3814,311,100676
12:14:13.397,3657,20.5078125,539.0625,-826.171875,0.006108652381980153,-0.03420845333908886,0.003665191429188092,-2253,-2064,-2082,3814,311,100676
12:14:13.418,3658,8.7890625,545.8984375,-833.0078125,0.024434609527920613,-0.020769418098732523,0.0,-2262,-2064,-2088,3814,311,100676
12:14:13.439,3659,18.5546875,541.015625,-833.984375,0.01710422666954443,-0.0012217304763960308,-0.0024434609527920616,-2268,-2070,-2093,3814,311,100676
12:14:13.449,3660,13.671875,544.921875,-833.0078125,-0.0024434609527920616,-0.008552113334772215,-0.004886921905584123,-2258,-2065,-2083,3814,311,100676
12:14:13.470,3661,11.71875,547.8515625,-829.1015625,-0.013439035240356337,-0.013439035240356337,-0.0024434609527920616,-2265,-2069,-2092,3814,311,100676
12:14:13.490,3662,16.6015625,553.7109375,-835.9375,0.0,-0.023212879051524585,-0.0024434609527920616,-2263,-2068,-2087,3814,311,100676
12:14:13.511,3663,8.7890625,536.1328125,-840.8203125,0.024434609527920613,-0.029321531433504737,0.014660765716752368,-2261,-2065,-2098,3814,311,100676
12:14:13.532,3664,8.7890625,541.9921875,-835.9375,-0.007330382858376184,-0.024434609527920613,0.004886921905584123,-2258,-2065,-2081,3814,311,100676
12:14:13.542,3665,8.7890625,539.0625,-829.1015625,-0.02809980095710871,-0.039095375244672985,0.009773843811168246,-2264,-2068,-2088,3814,311,100676
12:14:13.562,3666,16.6015625,539.0625,-830.078125,-0.021991148575128554,-0.021991148575128554,0.0,-2263,-2066,-2081,3814,311,100676
12:14:13.583,3667,13.671875,547.8515625,-822.265625,0.0012217304763960308,0.0012217304763960308,0.0012217304763960308,-2265,-2068,-2086,3814,311,100676
12:14:13.604,3668,8.7890625,541.015625,-818.359375,0.009773843811168246,-0.003665191429188092,-0.013439035240356337,-2258,-2065,-2089,3814,311,100676
12:14:13.614,3669,16.6015625,536.1328125,-821.2890625,0.013439035240356337,-0.0012217304763960308,-0.0012217304763960308,-2263,-2064,-2091,3814,311,100676
12:14:13.636,3670,4.8828125,534.1796875,-811.5234375,-0.014660765716752368,0.012217304763960306,0.0024434609527920616,-2264,-2066,-2086,3814,311,100676
12:14:13.656,3671,10.7421875,539.0625,-825.1953125,-0.0158824961931484,0.023212879051524585,0.003665191429188092,-2242,-2059,-2082,3814,311,100676
12:14:13.677,3672,9.765625,550.78125,-824.21875,0.004886921905584123,0.026878070480712675,0.014660765716752368,-2263,-2069,-2093,3814,311,100676
12:14:13.687,3673,4.8828125,541.9921875,-816.40625,0.0024434609527920616,0.03665191429188092,0.020769418098732523,-2259,-2071,-2091,3814,311,100676
12:14:13.707,3674,14.6484375,525.390625,-816.40625,0.039095375244672985,0.039095375244672985,0.021991148575128554,-2260,-2068,-2087,3814,311,100676
12:14:13.727,3675,19.53125,512.6953125,-812.5,0.01832595714594046,0.052534410485029326,0.04398229715025711,-2247,-2065,-2104,3814,311,100676
12:14:13.748,3676,16.6015625,512.6953125,-823.2421875,-0.029321531433504737,0.08063421144213802,0.0671951762017817,-2261,-2069,-2088,3814,311,100676
12:14:13.769,3677,18.5546875,549.8046875,-817.3828125,-0.01832595714594046,0.07330382858376185,0.06597344572538566,-2265,-2070,-2091,3814,311,100676
12:14:13.779,3678,22.4609375,548.828125,-807.6171875,0.05742133239061345,0.08185594191853407,0.058643062867009474,-2256,-2066,-2098,3814,311,100676
12:14:13.801,3679,24.4140625,522.4609375,-811.5234375,0.07086036763096978,0.0989601685880785,0.10262536001726659,-2256,-2066,-2098,3814,311,100676
12:14:13.821,3680,12.6953125,537.109375,-798.828125,0.07941248096574201,0.1466076571675237,0.09407324668249437,-2256,-2070,-2083,3814,311,100676
12:14:13.832,3681,33.203125,523.4375,-792.96875,0.05986479334340551,0.15760323145508798,0.09407324668249437,-2256,-2066,-2090,3814,311,100676
12:14:13.852,3682,38.0859375,526.3671875,-788.0859375,0.11850785621041499,0.16493361431346415,0.11239920382843484,-2247,-2069,-2091,3814,311,100676
12:14:13.873,3683,20.5078125,515.625,-796.875,0.1148426647812269,0.20891591146372127,0.1343903524035634,-2249,-2071,-2093,3814,311,100676
12:14:13.894,3684,45.8984375,513.671875,-772.4609375,0.0476474885794452,0.26389378290154264,0.14538592669112765,-2247,-2070,-2089,3814,311,100676
12:14:13.914,3685,53.7109375,500.9765625,-766.6015625,0.019547687622336492,0.3017674276698196,0.15393804002589986,-2232,-2063,-2085,3814,311,100676
12:14:13.925,3686,58.59375,515.625,-775.390625,0.10140362954087055,0.3262020371977402,0.1502728485967118,-2239,-2070,-2099,3814,311,100676
12:14:13.945,3687,70.3125,505.859375,-781.25,0.16859880574265224,0.39461894387591795,0.17715091907742447,-2241,-2072,-2091,3814,311,100676
12:14:13.965,3688,61.5234375,508.7890625,-771.484375,0.1869247628885927,0.4471533543609472,0.17715091907742447,-2239,-2075,-2085,3814,311,100676
12:14:13.986,3689,79.1015625,500.9765625,-755.859375,0.19669860669976097,0.4850269991292242,0.1905899543177808,-2235,-2072,-2078,3814,311,100676
12:14:13.996,3690,122.0703125,460.9375,-781.25,0.1942551457469689,0.516791991515521,0.2101376419401173,-2230,-2074,-2097,3814,311,100676
12:14:14.17,3691,93.75,459.9609375,-806.640625,0.14172073526193957,0.5595525581893821,0.24556782575560218,-2219,-2078,-2093,3814,311,100676
12:14:14.37,3692,107.421875,513.671875,-786.1328125,0.1478293876439197,0.6133086991508074,0.2651155133779387,-2209,-2073,-2094,3814,311,100676
12:14:14.58,3693,126.953125,504.8828125,-777.34375,0.24068090385001806,0.6352998477259361,0.2651155133779387,-2195,-2072,-2087,3814,311,100676
12:14:14.78,3694,157.2265625,471.6796875,-776.3671875,0.35063664672566086,0.6475171524898963,0.2956587752878394,-2194,-2077,-2082,3814,311,100676
12:14:14.89,3695,181.640625,435.546875,-787.109375,0.3652974124424132,0.7159340591680741,0.32131511529215606,-2198,-2085,-2078,3814,311,100676
12:14:14.109,3696,154.296875,440.4296875,-804.6875,0.36163222101322506,0.7623598172711232,0.35796702958403703,-2190,-2090,-2089,3814,311,100676
12:14:14.130,3697,180.6640625,441.40625,-770.5078125,0.2223549467040776,0.8100073058505685,0.3640756819660172,-2186,-2092,-2085,3814,311,100676
12:14:14.150,3698,250.9765625,417.96875,-753.90625,0.1502728485967118,0.8258898020437169,0.3677408733952052,-2180,-2087,-2086,3814,311,100676
12:14:14.160,3699,285.15625,405.2734375,-783.203125,0.16126842288427604,0.8723155601467659,0.4068362486398782,-2163,-2096,-2072,3814,311,100676
12:14:14.180,3700,267.578125,476.5625,-794.921875,0.29688050576423547,0.9382890058721516,0.45814892864851153,-2163,-2094,-2093,3814,311,100676
12:14:14.201,3701,260.7421875,483.3984375,-756.8359375,0.31887165433936404,1.0213666782670816,0.43493604959698695,-2157,-2099,-2083,3814,311,100676
12:14:14.221,3702,302.734375,413.0859375,-755.859375,0.28099800957108706,1.0470230182713984,0.42516220578581876,-2141,-2101,-2085,3820,311,100675
12:14:14.242,3703,386.71875,347.65625,-751.953125,0.23945917337362205,1.0910053154216555,0.44837508483734323,-2128,-2101,-2081,3820,311,100675
12:14:14.252,3704,435.546875,366.2109375,-799.8046875,0.17470745812463243,1.116661655425972,0.48991392103480835,-2126,-2107,-2083,3820,311,100675
12:14:14.273,3705,388.671875,425.78125,-830.078125,0.2296853295624538,1.1753047182929817,0.5326744877086694,-2110,-2109,-2080,3820,311,100675
12:14:14.294,3706,354.4921875,413.0859375,-772.4609375,0.28099800957108706,1.18507856210415,0.5216789134211052,-2102,-2112,-2088,3820,311,100675
12:14:14.315,3707,442.3828125,396.484375,-724.609375,0.29810223624063154,1.1924089449625261,0.4972443038931845,-2093,-2110,-2067,3820,311,100675
12:14:14.325,3708,526.3671875,359.375,-785.15625,0.23945917337362205,1.2107349021084666,0.49113565151120436,-2073,-2124,-2079,3820,311,100675
12:14:14.345,3709,523.4375,390.625,-847.65625,0.3628539514896212,1.2400564335419713,0.49113565151120436,-2068,-2119,-2088,3820,311,100675
12:14:14.387,3710,496.09375,441.40625,-808.59375,0.6609561877302527,1.233947781159991,0.5033529562751646,-2043,-2114,-2098,3820,311,100675
12:14:14.398,3711,451.171875,395.5078125,-738.28125,0.8710938296703699,1.225395667825219,0.519235452468313,-2042,-2130,-2097,3820,311,100675
12:14:14.418,3712,572.265625,298.828125,-704.1015625,0.676838683923401,1.269377964975476,0.4850269991292242,-2034,-2135,-2106,3820,311,100675
12:14:14.439,3713,659.1796875,260.7421875,-804.6875,0.4850269991292242,1.3255775668896934,0.4642575810304917,-2022,-2144,-2119,3820,311,100675
12:14:14.459,3714,660.15625,337.890625,-782.2265625,0.7672467391767073,1.26815623449908,0.4459316238845512,-2009,-2153,-2117,3820,311,100675
12:14:14.480,3715,622.0703125,319.3359375,-687.5,1.0128145649323095,1.233947781159991,0.5265658353266892,-2007,-2160,-2106,3820,311,100675
12:14:14.490,3716,598.6328125,277.34375,-672.8515625,0.992045146833577,1.2486085468767434,0.5314527572322734,-1993,-2171,-2122,3820,311,100675
12:14:14.511,3717,677.734375,251.953125,-686.5234375,0.9382890058721516,1.354899098323198,0.45081854579013536,-1978,-2185,-2120,3820,311,100675
12:14:14.532,3718,774.4140625,215.8203125,-761.71875,0.8674286382411819,1.4013248564262473,0.4056145181634822,-1971,-2185,-2119,3820,311,100675
12:14:14.552,3719,756.8359375,164.0625,-707.03125,0.8698720991939739,1.341460063082842,0.4153883619746504,-1963,-2198,-2136,3820,311,100675
12:14:14.563,3720,730.46875,194.3359375,-679.6875,0.7843509658462519,1.2913691135506045,0.43615778007338296,-1937,-2204,-2146,3820,311,100675
12:14:14.583,3721,745.1171875,238.28125,-654.296875,0.9285151620609834,1.3243558364132975,0.3897320219703338,-1943,-2214,-2137,3820,311,100675
12:14:14.604,3722,815.4296875,148.4375,-622.0703125,1.0262536001726659,1.4049900478554356,0.33475415053251245,-1932,-2223,-2152,3820,311,100675
12:14:14.624,3723,905.2734375,48.828125,-674.8046875,0.7501425125071629,1.466076571675237,0.3005456971934236,-1916,-2231,-2157,3820,311,100675
12:14:14.635,3724,871.09375,90.8203125,-710.9375,0.5619960191421741,1.4220942745249798,0.3139847324337799,-1896,-2228,-2167,3820,311,100675
12:14:14.655,3725,845.703125,164.0625,-665.0390625,0.6377433086787281,1.393994473567871,0.3078760800517997,-1895,-2241,-2181,3820,311,100675
12:14:14.675,3726,807.6171875,240.234375,-555.6640625,0.8258898020437169,1.3744467859455347,0.2932153143350474,-1887,-2247,-2191,3820,311,100675
12:14:14.696,3727,873.046875,137.6953125,-460.9375,0.6817256058289851,1.4049900478554356,0.2504547476611863,-1866,-2249,-2204,3820,311,100675
12:14:14.717,3728,960.9375,96.6796875,-515.625,0.4312708581677988,1.4355333097653364,0.2150245638457014,-1872,-2258,-2206,3820,311,100675
12:14:14.727,3729,970.703125,128.90625,-589.84375,0.36041049053682905,1.4611896497696528,0.23212879051524585,-1867,-2263,-2214,3820,311,100675
12:14:14.747,3730,858.3984375,126.953125,-528.3203125,0.36896260387160124,1.4025465869026434,0.24556782575560218,-1851,-2269,-2238,3820,311,100675
12:14:14.768,3731,933.59375,66.40625,-496.09375,0.22846359908605776,1.2559389297351196,0.26389378290154264,-1845,-2275,-2235,3820,311,100675
12:14:14.789,3732,945.3125,110.3515625,-486.328125,0.24923301718479027,1.189965484009734,0.23701571242082997,-1839,-2268,-2248,3820,311,100675
12:14:14.809,3733,966.796875,85.9375,-419.921875,0.39217548292312593,1.2229522068724268,0.18814649336498873,-1832,-2275,-2248,3820,311,100675
12:14:14.820,3734,1028.3203125,58.59375,-422.8515625,0.4043927876870862,1.2376129725891793,0.16371188383706814,-1824,-2276,-2268,3820,311,100675
12:14:14.841,3735,1054.6875,30.2734375,-425.78125,0.37507125625358145,1.233947781159991,0.17470745812463243,-1824,-2285,-2268,3820,311,100675
12:14:14.862,3736,1042.96875,26.3671875,-385.7421875,0.48747046008201633,1.147204917335873,0.19303341527057283,-1819,-2290,-2282,3820,311,100675
12:14:14.872,3737,1064.453125,-6.8359375,-376.953125,0.5253441048502933,1.0800097411340912,0.1905899543177808,-1813,-2288,-2281,3820,311,100675
12:14:14.893,3738,1009.765625,-28.3203125,-364.2578125,0.4838052686528282,1.0934487763744476,0.16982053621904827,-1805,-2295,-2295,3820,311,100675
12:14:14.914,3739,1006.8359375,-26.3671875,-337.890625,0.36896260387160124,1.116661655425972,0.14538592669112765,-1802,-2294,-2305,3820,311,100675
12:14:14.934,3740,1027.34375,3.90625,-321.2890625,0.26389378290154264,1.0800097411340912,0.12217304763960309,-1795,-2296,-2318,3820,311,100675
12:14:14.955,3741,1038.0859375,21.484375,-310.546875,0.2895501229058593,1.0494664792241903,0.12583823906879116,-1786,-2294,-2332,3820,311,100675
12:14:14.965,3742,1034.1796875,31.25,-304.6875,0.4422664324553632,0.9724974592112404,0.11606439525762292,-1792,-2299,-2342,3820,311,100675
12:14:14.985,3743,1020.5078125,48.828125,-281.25,0.5888740896228868,0.8857545953871224,0.08796459430051422,-1788,-2306,-2352,3820,311,100675
12:14:15.6,3744,1007.8125,32.2265625,-259.765625,0.5705481324769464,0.8051203839449842,0.08796459430051422,-1785,-2305,-2359,3820,311,100675
12:14:15.26,3745,989.2578125,47.8515625,-222.65625,0.4532620067429274,0.7843509658462519,0.06841690667817772,-1785,-2310,-2368,3820,311,100675
12:14:15.36,3746,980.46875,56.640625,-226.5625,0.31642819338657197,0.7049384848805097,0.0635299847725936,-1783,-2307,-2355,3820,311,100675
12:14:15.57,3747,963.8671875,60.546875,-237.3046875,0.3090978105281958,0.6206390820091836,0.03420845333908886,-1777,-2307,-2384,3820,311,100675
12:14:15.77,3748,967.7734375,51.7578125,-233.3984375,0.33108895910332437,0.515570261039125,-0.0012217304763960308,-1763,-2310,-2374,3820,311,100675
12:14:15.149,3749,992.1875,28.3203125,-230.46875,0.3090978105281958,0.44959681531373935,-0.029321531433504737,-1773,-2312,-2397,3820,311,100675
12:14:15.169,3750,1027.34375,7.8125,-219.7265625,0.3420845333908886,0.3628539514896212,-0.039095375244672985,-1775,-2316,-2386,3820,311,100675
12:14:15.189,3751,1052.734375,-64.453125,-180.6640625,0.3274237676741363,0.2883283924294633,-0.0635299847725936,-1777,-2314,-2397,3820,311,100675
12:14:15.210,3752,1076.171875,-107.421875,-172.8515625,0.13316862192716736,0.22846359908605776,-0.04520402762665313,-1767,-2319,-2390,3814,312,100683
12:14:15.220,3753,1051.7578125,-82.03125,-188.4765625,-0.14416419621473164,0.15882496193148402,-0.024434609527920613,-1770,-2316,-2408,3814,312,100683
12:14:15.241,3754,1026.3671875,-10.7421875,-186.5234375,-0.24801128670839426,0.14416419621473164,-0.01832595714594046,-1777,-2320,-2414,3814,312,100683
12:14:15.261,3755,1002.9296875,20.5078125,-156.25,-0.1734857276482364,0.08918632477691024,-0.009773843811168246,-1770,-2317,-2398,3814,312,100683
12:14:15.282,3756,1022.4609375,12.6953125,-144.53125,-0.02809980095710871,0.009773843811168246,-0.024434609527920613,-1769,-2316,-2412,3814,312,100683
12:14:15.302,3757,1025.390625,20.5078125,-137.6953125,0.15638150097869194,-0.05619960191421742,-0.04031710572106901,-1753,-2306,-2401,3814,312,100683
12:14:15.312,3758,1016.6015625,10.7421875,-129.8828125,0.24068090385001806,-0.06597344572538566,-0.03298672286269283,-1772,-2314,-2401,3814,312,100683
12:14:15.333,3759,1006.8359375,10.7421875,-119.140625,0.23212879051524585,-0.09040805525330627,-0.007330382858376184,-1760,-2308,-2402,3814,312,100683
12:14:15.354,3760,1010.7421875,23.4375,-118.1640625,0.2223549467040776,-0.08185594191853407,0.009773843811168246,-1776,-2308,-2411,3814,312,100683
12:14:15.374,3761,1008.7890625,25.390625,-113.28125,0.2932153143350474,-0.0952949771588904,0.0,-1772,-2311,-2415,3814,312,100683
12:14:15.384,3762,1008.7890625,19.53125,-109.375,0.37018433434799736,-0.0989601685880785,0.008552113334772215,-1761,-2313,-2402,3814,312,100683
12:14:15.405,3763,1012.6953125,14.6484375,-115.234375,0.4227187448330266,-0.0952949771588904,0.010995574287564277,-1769,-2316,-2400,3814,312,100683
12:14:15.425,3764,1008.7890625,25.390625,-107.421875,0.4642575810304917,-0.0989601685880785,0.008552113334772215,-1774,-2309,-2403,3814,312,100683
12:14:15.446,3765,1010.7421875,-2.9296875,-85.9375,0.39339721339952194,-0.0635299847725936,0.006108652381980153,-1775,-2313,-2410,3814,312,100683
12:14:15.456,3766,1021.484375,-0.0,-66.40625,0.2700024352835228,-0.07941248096574201,0.013439035240356337,-1771,-2315,-2399,3814,312,100683
12:14:15.477,3767,1042.96875,20.5078125,-83.0078125,0.13683381335635544,-0.052534410485029326,-0.014660765716752368,-1770,-2314,-2395,3814,312,100683
12:14:15.498,3768,1038.0859375,5.859375,-103.515625,0.08063421144213802,-0.0671951762017817,-0.0476474885794452,-1771,-2313,-2408,3814,312,100683
12:14:15.518,3769,1046.875,19.53125,-115.234375,0.05986479334340551,-0.05742133239061345,-0.06841690667817772,-1764,-2316,-2409,3814,312,100683
12:14:15.539,3770,1037.109375,21.484375,-125.9765625,0.03420845333908886,-0.04520402762665313,-0.09773843811168245,-1772,-2319,-2413,3814,312,100683
12:14:15.549,3771,1035.15625,3.90625,-135.7421875,0.06597344572538566,-0.05497787143782139,-0.12095131716320705,-1773,-2320,-2400,3814,312,100683
12:14:15.570,3772,1034.1796875,-0.0,-139.6484375,0.09285151620609834,-0.051312680008633295,-0.1270599695451872,-1769,-2312,-2401,3814,312,100683
12:14:15.590,3773,1024.4140625,-11.71875,-136.71875,0.10629055144645469,-0.07086036763096978,-0.13683381335635544,-1766,-2316,-2394,3814,312,100683
12:14:15.610,3774,1022.4609375,-8.7890625,-131.8359375,0.14172073526193957,-0.06108652381980154,-0.12950343049797927,-1770,-2316,-2398,3814,312,100683
12:14:15.620,3775,1010.7421875,-2.9296875,-125.0,0.197920337176157,-0.04276056667386108,-0.13683381335635544,-1768,-2311,-2393,3814,312,100683
12:14:15.641,3776,1016.6015625,12.6953125,-121.09375,0.20891591146372127,-0.04153883619746505,-0.13683381335635544,-1763,-2307,-2413,3814,312,100683
12:14:15.661,3777,1005.859375,-9.765625,-115.234375,0.20525072003453318,-0.048869219055841226,-0.11362093430483088,-1767,-2314,-2410,3814,312,100683
12:14:15.681,3778,1012.6953125,-17.578125,-125.0,0.16004669240788005,-0.07330382858376185,-0.11972958668681102,-1773,-2314,-2405,3814,312,100683
12:14:15.702,3779,1017.578125,-21.484375,-130.859375,0.09285151620609834,-0.05619960191421742,-0.10506882097005865,-1775,-2308,-2405,3814,312,100683
12:14:15.712,3780,1009.765625,-19.53125,-133.7890625,0.05986479334340551,-0.07574728953655392,-0.09773843811168245,-1764,-2309,-2402,3814,312,100683
12:14:15.732,3781,1003.90625,39.0625,-125.9765625,0.11850785621041499,-0.06475171524898964,-0.07330382858376185,-1770,-2316,-2399,3814,312,100683
12:14:15.753,3782,1019.53125,28.3203125,-105.46875,0.08429940287132612,-0.03298672286269283,-0.07941248096574201,-1772,-2316,-2396,3814,312,100683
12:14:15.773,3783,1021.484375,18.5546875,-113.28125,0.08796459430051422,-0.048869219055841226,-0.05009094953223726,-1770,-2314,-2401,3814,312,100683
12:14:15.793,3784,1005.859375,2.9296875,-138.671875,0.1038470904936626,-0.04398229715025711,-0.04153883619746505,-1774,-2318,-2419,3814,312,100683
12:14:15.804,3785,1000.0,-3.90625,-134.765625,0.06841690667817772,-0.04642575810304917,-0.021991148575128554,-1770,-2311,-2402,3814,312,100683
12:14:15.844,3786,1006.8359375,-4.8828125,-143.5546875,0.058643062867009474,-0.052534410485029326,-0.013439035240356337,-1774,-2312,-2410,3814,312,100683
12:14:15.865,3787,1015.625,14.6484375,-134.765625,0.10018189906447451,-0.051312680008633295,-0.012217304763960306,-1765,-2309,-2401,3814,312,100683
12:14:15.876,3788,1012.6953125,13.671875,-125.0,0.0867428638241182,-0.03665191429188092,-0.009773843811168246,-1773,-2314,-2400,3814,312,100683
12:14:15.896,3789,1018.5546875,7.8125,-135.7421875,0.07330382858376185,-0.04398229715025711,-0.020769418098732523,-1772,-2312,-2408,3814,312,100683
12:14:15.917,3790,1020.5078125,-0.9765625,-135.7421875,0.052534410485029326,-0.05497787143782139,0.0,-1760,-2304,-2398,3814,312,100683
12:14:15.938,3791,1010.7421875,4.8828125,-140.625,0.021991148575128554,-0.03665191429188092,-0.012217304763960306,-1768,-2313,-2400,3814,312,100683
12:14:15.990,3792,1007.8125,2.9296875,-136.71875,-0.0012217304763960308,-0.03543018381548489,-0.020769418098732523,-1771,-2314,-2395,3814,312,100683
12:14:16.11,3793,1011.71875,0.9765625,-145.5078125,-0.012217304763960306,-0.051312680008633295,-0.007330382858376184,-1768,-2312,-2399,3814,312,100683
12:14:16.32,3794,1019.53125,8.7890625,-132.8125,-0.026878070480712675,-0.05009094953223726,0.007330382858376184,-1770,-2312,-2401,3814,312,100683
12:14:16.42,3795,1024.4140625,8.7890625,-157.2265625,-0.0158824961931484,-0.0476474885794452,-0.004886921905584123,-1769,-2317,-2403,3814,312,100683
12:14:16.62,3796,1010.7421875,23.4375,-147.4609375,-0.021991148575128554,-0.04642575810304917,-0.014660765716752368,-1774,-2315,-2407,3814,312,100683
12:14:16.82,3797,1004.8828125,19.53125,-141.6015625,-0.01832595714594046,-0.051312680008633295,-0.004886921905584123,-1754,-2304,-2405,3814,312,100683
12:14:16.103,3798,1015.625,27.34375,-140.625,0.006108652381980153,-0.04276056667386108,-0.014660765716752368,-1768,-2316,-2403,3814,312,100683
12:14:16.123,3799,1010.7421875,13.671875,-142.578125,-0.0317649923862968,-0.03420845333908886,0.0012217304763960308,-1771,-2312,-2396,3814,312,100683
12:14:16.133,3800,1001.953125,24.4140625,-144.53125,-0.029321531433504737,-0.021991148575128554,0.003665191429188092,-1765,-2309,-2392,3814,312,100683
12:14:16.153,3801,1001.953125,23.4375,-141.6015625,-0.03665191429188092,-0.026878070480712675,0.003665191429188092,-1770,-2315,-2396,3814,312,100683
12:14:16.174,3802,1005.859375,17.578125,-141.6015625,-0.024434609527920613,-0.039095375244672985,0.0012217304763960308,-1774,-2315,-2401,3814,312,100686
12:14:16.194,3803,1012.6953125,25.390625,-148.4375,-0.0317649923862968,-0.03787364476827696,0.0012217304763960308,-1770,-2315,-2400,3814,312,100686
12:14:16.204,3804,1008.7890625,18.5546875,-141.6015625,-0.04031710572106901,-0.008552113334772215,0.014660765716752368,-1759,-2308,-2393,3814,312,100686
12:14:16.225,3805,1003.90625,13.671875,-150.390625,-0.04031710572106901,-0.025656340004316647,0.008552113334772215,-1771,-2312,-2409,3814,312,100686
12:14:16.245,3806,1010.7421875,23.4375,-156.25,-0.02809980095710871,-0.023212879051524585,0.014660765716752368,-1774,-2313,-2400,3814,312,100686
12:14:16.266,3807,1011.71875,19.53125,-139.6484375,-0.04031710572106901,-0.004886921905584123,0.009773843811168246,-1765,-2309,-2398,3814,312,100686
12:14:16.286,3808,1007.8125,18.5546875,-151.3671875,-0.026878070480712675,-0.008552113334772215,0.01710422666954443,-1764,-2312,-2389,3814,312,100686
12:14:16.296,3809,1009.765625,20.5078125,-149.4140625,-0.029321531433504737,-0.019547687622336492,0.0024434609527920616,-1769,-2313,-2405,3814,312,100686
12:14:16.317,3810,1004.8828125,29.296875,-143.5546875,-0.03543018381548489,-0.01710422666954443,0.013439035240356337,-1770,-2312,-2406,3814,312,100686
12:14:16.338,3811,1005.859375,27.34375,-136.71875,-0.026878070480712675,-0.0158824961931484,0.025656340004316647,-1770,-2314,-2392,3814,312,100686
12:14:16.358,3812,1007.8125,14.6484375,-155.2734375,-0.0317649923862968,0.004886921905584123,0.003665191429188092,-1770,-2316,-2401,3814,312,100686
12:14:16.369,3813,1008.7890625,16.6015625,-155.2734375,-0.021991148575128554,0.0024434609527920616,0.01832595714594046,-1772,-2312,-2380,3814,312,100686
12:14:16.410,3814,1004.8828125,14.6484375,-150.390625,-0.04398229715025711,0.0012217304763960308,0.01832595714594046,-1774,-2309,-2388,3814,312,100686
12:14:16.430,3815,1010.7421875,35.15625,-148.4375,-0.0012217304763960308,-0.009773843811168246,0.008552113334772215,-1774,-2308,-2403,3814,312,100686
12:14:16.451,3816,1006.8359375,23.4375,-144.53125,-0.024434609527920613,0.0012217304763960308,0.0024434609527920616,-1773,-2309,-2397,3814,312,100686
12:14:16.461,3817,1009.765625,18.5546875,-153.3203125,0.01710422666954443,-0.012217304763960306,0.0024434609527920616,-1768,-2309,-2400,3814,312,100686
12:14:16.534,3818,1007.8125,23.4375,-149.4140625,-0.01710422666954443,-0.014660765716752368,-0.0012217304763960308,-1762,-2309,-2396,3814,312,100686
12:14:16.554,3819,1008.7890625,30.2734375,-143.5546875,-0.014660765716752368,-0.004886921905584123,0.006108652381980153,-1769,-2306,-2396,3814,312,100686
12:14:16.574,3820,1010.7421875,22.4609375,-145.5078125,-0.0158824961931484,0.004886921905584123,0.0,-1771,-2311,-2392,3814,312,100686
12:14:16.595,3821,1008.7890625,15.625,-165.0390625,0.014660765716752368,-0.0012217304763960308,0.0012217304763960308,-1752,-2305,-2397,3814,312,100686
12:14:16.615,3822,1005.859375,19.53125,-154.296875,0.004886921905584123,0.013439035240356337,-0.008552113334772215,-1752,-2302,-2397,3814,312,100686
12:14:16.625,3823,1006.8359375,21.484375,-142.578125,0.0012217304763960308,-0.006108652381980153,-0.021991148575128554,-1767,-2307,-2391,3814,312,100686
12:14:16.645,3824,1009.765625,21.484375,-139.6484375,0.019547687622336492,-0.0024434609527920616,-0.026878070480712675,-1769,-2305,-2392,3814,312,100686
12:14:16.666,3825,1002.9296875,15.625,-140.625,-0.020769418098732523,0.0024434609527920616,-0.01832595714594046,-1745,-2302,-2395,3814,312,100686
12:14:16.686,3826,1004.8828125,17.578125,-151.3671875,-0.014660765716752368,-0.013439035240356337,-0.01710422666954443,-1767,-2311,-2414,3814,312,100686
12:14:16.696,3827,1003.90625,22.4609375,-158.203125,0.0024434609527920616,-0.003665191429188092,-0.006108652381980153,-1768,-2304,-2403,3814,312,100686
12:14:16.717,3828,1011.71875,24.4140625,-145.5078125,0.014660765716752368,0.006108652381980153,-0.0158824961931484,-1769,-2307,-2401,3814,312,100686
12:14:16.737,3829,1024.4140625,17.578125,-152.34375,0.0,0.008552113334772215,-0.010995574287564277,-1773,-2311,-2390,3814,312,100686
12:14:16.758,3830,1015.625,13.671875,-148.4375,-0.012217304763960306,-0.003665191429188092,-0.007330382858376184,-1770,-2309,-2401,3814,312,100686
12:14:16.779,3831,1015.625,7.8125,-149.4140625,-0.04276056667386108,-0.024434609527920613,-0.009773843811168246,-1768,-2312,-2396,3814,312,100686
12:14:16.789,3832,1020.5078125,14.6484375,-159.1796875,-0.04276056667386108,-0.010995574287564277,-0.01832595714594046,-1753,-2300,-2400,3814,312,100686
12:14:16.810,3833,1024.4140625,16.6015625,-156.25,-0.052534410485029326,-0.013439035240356337,-0.019547687622336492,-1768,-2307,-2374,3814,312,100686
12:14:16.830,3834,1028.3203125,14.6484375,-146.484375,-0.07696902001294993,-0.02809980095710871,-0.023212879051524585,-1770,-2308,-2400,3814,312,100686
12:14:16.851,3835,1027.34375,18.5546875,-152.34375,-0.08185594191853407,-0.021991148575128554,-0.03054326190990077,-1769,-2312,-2405,3814,312,100686
12:14:16.862,3836,1010.7421875,10.7421875,-156.25,-0.0952949771588904,-0.025656340004316647,-0.02809980095710871,-1759,-2309,-2400,3814,312,100686
12:14:16.882,3837,1009.765625,20.5078125,-166.9921875,-0.10018189906447451,-0.01710422666954443,-0.008552113334772215,-1769,-2313,-2404,3814,312,100686
12:14:16.902,3838,1010.7421875,34.1796875,-159.1796875,-0.10140362954087055,-0.05619960191421742,-0.021991148575128554,-1772,-2309,-2393,3814,312,100686
12:14:16.923,3839,1009.765625,38.0859375,-156.25,-0.05375614096142535,-0.05619960191421742,-0.0158824961931484,-1767,-2310,-2393,3814,312,100686
12:14:16.944,3840,1010.7421875,30.2734375,-156.25,-0.008552113334772215,-0.07452555906015788,-0.021991148575128554,-1770,-2308,-2395,3814,312,100686
12:14:16.954,3841,1024.4140625,25.390625,-156.25,0.004886921905584123,-0.07452555906015788,-0.01832595714594046,-1769,-2311,-2392,3814,312,100686
12:14:16.975,3842,1017.578125,21.484375,-161.1328125,0.014660765716752368,-0.07819075048934597,-0.03787364476827696,-1769,-2308,-2383,3814,312,100686
12:14:16.996,3843,1012.6953125,6.8359375,-165.0390625,0.0,-0.0830776723949301,-0.04031710572106901,-1768,-2301,-2402,3814,312,100686
12:14:17.16,3844,1004.8828125,4.8828125,-166.9921875,-0.04642575810304917,-0.07819075048934597,-0.03298672286269283,-1772,-2300,-2377,3814,312,100686
12:14:17.27,3845,1002.9296875,18.5546875,-170.8984375,-0.04153883619746505,-0.09407324668249437,-0.01832595714594046,-1770,-2303,-2385,3814,312,100686
12:14:17.47,3846,1001.953125,32.2265625,-168.9453125,-0.01832595714594046,-0.09407324668249437,-0.025656340004316647,-1759,-2299,-2389,3814,312,100686
12:14:17.68,3847,1003.90625,31.25,-164.0625,0.007330382858376184,-0.11362093430483088,-0.0158824961931484,-1772,-2306,-2389,3814,312,100686
12:14:17.89,3848,1000.9765625,25.390625,-160.15625,0.013439035240356337,-0.12217304763960309,-0.012217304763960306,-1773,-2307,-2386,3814,312,100686
12:14:17.99,3849,1002.9296875,19.53125,-153.3203125,-0.003665191429188092,-0.10629055144645469,-0.03665191429188092,-1769,-2306,-2391,3814,312,100686
12:14:17.120,3850,1012.6953125,9.765625,-151.3671875,-0.058643062867009474,-0.09285151620609834,-0.03420845333908886,-1775,-2307,-2382,3814,312,100686
12:14:17.140,3851,1009.765625,8.7890625,-157.2265625,-0.07452555906015788,-0.10873401239924674,-0.03054326190990077,-1771,-2304,-2380,3814,312,100686
12:14:17.161,3852,1004.8828125,4.8828125,-161.1328125,-0.11850785621041499,-0.10629055144645469,-0.021991148575128554,-1772,-2309,-2379,3820,312,100680
12:14:17.181,3853,1000.0,15.625,-163.0859375,-0.1307251609743753,-0.10140362954087055,-0.039095375244672985,-1754,-2300,-2372,3820,312,100680
12:14:17.191,3854,1005.859375,28.3203125,-166.9921875,-0.13194689145077132,-0.08429940287132612,-0.019547687622336492,-1771,-2302,-2373,3820,312,100680
12:14:17.212,3855,1003.90625,27.34375,-160.15625,-0.13316862192716736,-0.09651670763528641,-0.013439035240356337,-1765,-2301,-2374,3820,312,100680
12:14:17.253,3856,1000.9765625,21.484375,-160.15625,-0.13194689145077132,-0.07941248096574201,-0.008552113334772215,-1774,-2295,-2361,3820,312,100680
12:14:17.263,3857,999.0234375,19.53125,-159.1796875,-0.16004669240788005,-0.05009094953223726,-0.007330382858376184,-1773,-2298,-2358,3820,312,100680
12:14:17.284,3858,996.09375,26.3671875,-161.1328125,-0.1734857276482364,-0.04398229715025711,-0.004886921905584123,-1771,-2298,-2371,3820,312,100680
12:14:17.305,3859,997.0703125,25.390625,-160.15625,-0.1893682238413848,-0.0317649923862968,-0.0012217304763960308,-1771,-2301,-2373,3820,312,100680
12:14:17.325,3860,998.046875,7.8125,-165.0390625,-0.18814649336498873,-0.03420845333908886,0.0,-1762,-2295,-2360,3820,312,100680
12:14:17.336,3861,998.046875,18.5546875,-165.0390625,-0.20158552860534507,-0.023212879051524585,0.0,-1772,-2295,-2363,3820,312,100680
12:14:17.356,3862,986.328125,18.5546875,-171.875,-0.2431243648028101,-0.007330382858376184,0.01832595714594046,-1770,-2300,-2375,3820,312,100680
12:14:17.377,3863,1002.9296875,22.4609375,-163.0859375,-0.24801128670839426,0.003665191429188092,0.026878070480712675,-1775,-2300,-2356,3820,312,100680
12:14:17.397,3864,995.1171875,22.4609375,-166.015625,-0.2846632010002752,0.024434609527920613,0.0158824961931484,-1763,-2293,-2366,3820,312,100680
12:14:17.418,3865,1001.953125,30.2734375,-166.9921875,-0.2724458962363148,0.02809980095710871,0.03054326190990077,-1772,-2302,-2353,3820,312,100680
12:14:17.428,3866,1003.90625,14.6484375,-171.875,-0.2822197400474831,0.03787364476827696,0.03543018381548489,-1775,-2304,-2369,3820,312,100680
12:14:17.520,3867,1001.953125,16.6015625,-163.0859375,-0.30543261909900765,0.020769418098732523,0.04642575810304917,-1767,-2296,-2369,3820,312,100680
12:14:17.541,3868,999.0234375,21.484375,-171.875,-0.3420845333908886,0.03543018381548489,0.06230825429619757,-1771,-2297,-2361,3820,312,100680
12:14:17.562,3869,1005.859375,32.2265625,-173.828125,-0.34941491624926485,0.019547687622336492,0.07574728953655392,-1773,-2295,-2357,3820,312,100680
12:14:17.572,3870,1004.8828125,33.203125,-166.015625,-0.36163222101322506,0.048869219055841226,0.08063421144213802,-1773,-2297,-2368,3820,312,100680
12:14:17.593,3871,998.046875,24.4140625,-174.8046875,-0.34330626386728463,0.04520402762665313,0.08429940287132612,-1773,-2298,-2358,3820,312,100680
12:14:17.737,3872,996.09375,10.7421875,-169.921875,-0.3323106895797204,0.03420845333908886,0.08429940287132612,-1773,-2291,-2358,3820,312,100680
12:14:17.757,3873,1001.953125,17.578125,-166.015625,-0.3738495257771854,0.05009094953223726,0.09040805525330627,-1775,-2292,-2365,3820,312,100680
12:14:17.779,3874,991.2109375,36.1328125,-161.1328125,-0.4056145181634822,0.06963863715457375,0.0867428638241182,-1751,-2290,-2360,3820,312,100680
12:14:17.799,3875,982.421875,41.9921875,-162.109375,-0.4227187448330266,0.05497787143782139,0.09285151620609834,-1771,-2291,-2360,3820,312,100680
12:14:17.809,3876,986.328125,51.7578125,-166.015625,-0.40927970959267035,0.05986479334340551,0.10018189906447451,-1771,-2292,-2356,3820,312,100680
12:14:17.830,3877,977.5390625,53.7109375,-169.921875,-0.395840674352314,0.07330382858376185,0.12461650859239513,-1768,-2297,-2364,3820,312,100680
12:14:17.850,3878,949.21875,65.4296875,-174.8046875,-0.3262020371977402,0.08063421144213802,0.13316862192716736,-1769,-2291,-2364,3820,312,100680
12:14:17.870,3879,987.3046875,85.9375,-159.1796875,-0.2944370448114434,0.0989601685880785,0.1343903524035634,-1770,-2295,-2354,3820,312,100680
12:14:17.891,3880,1057.6171875,62.5,-145.5078125,-0.27611108766550296,0.09407324668249437,0.13194689145077132,-1769,-2288,-2360,3820,312,100680
12:14:17.901,3881,1064.453125,60.546875,-151.3671875,-0.2150245638457014,0.07941248096574201,0.1429424657383356,-1761,-2292,-2362,3820,312,100680
12:14:17.922,3882,1042.96875,47.8515625,-166.015625,-0.2150245638457014,0.0989601685880785,0.14172073526193957,-1772,-2300,-2363,3820,312,100680
12:14:17.942,3883,1036.1328125,47.8515625,-189.453125,-0.2150245638457014,0.11606439525762292,0.16004669240788005,-1775,-2295,-2357,3820,312,100680
12:14:17.963,3884,1027.34375,81.0546875,-181.640625,-0.17592918860102844,0.1233947781159991,0.16982053621904827,-1772,-2298,-2360,3820,312,100680
12:14:17.983,3885,1025.390625,75.1953125,-165.0390625,-0.13805554383275148,0.1075122819228507,0.16737707526625623,-1752,-2295,-2353,3820,312,100680
12:14:17.994,3886,1004.8828125,54.6875,-152.34375,-0.025656340004316647,0.10506882097005865,0.14049900478554353,-1774,-2298,-2365,3820,312,100680
12:14:18.14,3887,999.0234375,36.1328125,-149.4140625,0.012217304763960306,0.08185594191853407,0.10629055144645469,-1774,-2302,-2365,3820,312,100680
12:14:18.35,3888,992.1875,29.296875,-140.625,0.0158824961931484,0.058643062867009474,0.07819075048934597,-1760,-2296,-2358,3820,312,100680
12:14:18.56,3889,999.0234375,18.5546875,-145.5078125,-0.09407324668249437,0.051312680008633295,0.04642575810304917,-1776,-2307,-2362,3820,312,100680
12:14:18.66,3890,996.09375,22.4609375,-143.5546875,-0.16493361431346415,0.051312680008633295,0.0024434609527920616,-1779,-2302,-2366,3820,312,100680
12:14:18.87,3891,990.234375,30.2734375,-162.109375,-0.19669860669976097,0.04031710572106901,-0.006108652381980153,-1779,-2298,-2372,3820,312,100680
12:14:18.108,3892,993.1640625,54.6875,-173.828125,-0.19181168479417682,0.026878070480712675,-0.004886921905584123,-1768,-2303,-2367,3820,312,100680
12:14:18.129,3893,1011.71875,77.1484375,-167.96875,-0.13683381335635544,0.025656340004316647,-0.014660765716752368,-1770,-2299,-2364,3820,312,100680
12:14:18.139,3894,1031.25,81.0546875,-166.015625,-0.03787364476827696,0.03543018381548489,-0.0024434609527920616,-1772,-2300,-2374,3820,312,100680
12:14:18.160,3895,1031.25,60.546875,-171.875,0.03665191429188092,0.04276056667386108,-0.009773843811168246,-1763,-2304,-2366,3820,312,100680
12:14:18.181,3896,1029.296875,60.546875,-168.9453125,0.06841690667817772,0.026878070480712675,-0.003665191429188092,-1770,-2295,-2366,3820,312,100680
12:14:18.201,3897,1033.203125,54.6875,-153.3203125,0.08429940287132612,0.010995574287564277,-0.0012217304763960308,-1770,-2297,-2367,3820,312,100680
12:14:18.211,3898,1030.2734375,65.4296875,-151.3671875,0.1270599695451872,-0.004886921905584123,0.006108652381980153,-1768,-2302,-2376,3820,312,100680
12:14:18.232,3899,1011.71875,77.1484375,-135.7421875,0.15638150097869194,-0.023212879051524585,0.0,-1766,-2291,-2373,3820,312,100680
12:14:18.252,3900,1003.90625,63.4765625,-143.5546875,0.19669860669976097,-0.04031710572106901,-0.0158824961931484,-1767,-2298,-2374,3820,312,100680
12:14:18.273,3901,1002.9296875,42.96875,-153.3203125,0.2345722514680379,-0.07330382858376185,-0.0158824961931484,-1768,-2298,-2378,3820,312,100680
12:14:18.293,3902,1009.765625,36.1328125,-160.15625,0.238237442897226,-0.07330382858376185,-0.03054326190990077,-1760,-2294,-2359,3820,312,100686
12:14:18.303,3903,1011.71875,55.6640625,-154.296875,0.23945917337362205,-0.08918632477691024,-0.03420845333908886,-1772,-2300,-2365,3820,312,100686
12:14:18.323,3904,1004.8828125,51.7578125,-134.765625,0.2431243648028101,-0.08796459430051422,-0.03665191429188092,-1768,-2303,-2376,3820,312,100686
12:14:18.344,3905,1024.4140625,42.96875,-143.5546875,0.27977627909469105,-0.10262536001726659,-0.06230825429619757,-1770,-2302,-2374,3820,312,100686
12:14:18.364,3906,1049.8046875,49.8046875,-150.390625,0.31520646291017596,-0.1148426647812269,-0.06841690667817772,-1775,-2303,-2361,3820,312,100686
12:14:18.374,3907,1052.734375,70.3125,-142.578125,0.37018433434799736,-0.12095131716320705,-0.0635299847725936,-1771,-2299,-2361,3820,312,100686
12:14:18.395,3908,1048.828125,60.546875,-148.4375,0.437379510549779,-0.14049900478554353,-0.0635299847725936,-1773,-2298,-2367,3820,312,100686
12:14:18.415,3909,1046.875,54.6875,-170.8984375,0.4960225734167885,-0.12217304763960309,-0.07819075048934597,-1767,-2302,-2371,3820,312,100686
12:14:18.435,3910,1036.1328125,39.0625,-158.203125,0.5241223743738972,-0.1075122819228507,-0.10995574287564278,-1776,-2307,-2366,3820,312,100686
12:14:18.456,3911,1009.765625,16.6015625,-139.6484375,0.5742133239061344,-0.14049900478554353,-0.10018189906447451,-1777,-2303,-2378,3820,312,100686
12:14:18.466,3912,999.0234375,-10.7421875,-150.390625,0.5766567848589266,-0.13683381335635544,-0.12461650859239513,-1774,-2305,-2370,3820,312,100686
12:14:18.486,3913,975.5859375,-28.3203125,-145.5078125,0.5619960191421741,-0.14416419621473164,-0.15882496193148402,-1759,-2301,-2365,3820,312,100686
12:14:18.506,3914,978.515625,-29.296875,-155.2734375,0.4923573819876005,-0.1392772743091475,-0.17592918860102844,-1774,-2306,-2378,3820,312,100686
12:14:18.527,3915,982.421875,-27.34375,-141.6015625,0.40072759625789806,-0.13683381335635544,-0.19914206765255302,-1769,-2311,-2365,3820,312,100686
12:14:18.547,3916,983.3984375,-14.6484375,-139.6484375,0.3274237676741363,-0.1270599695451872,-0.22724186860966175,-1769,-2308,-2379,3820,312,100686
12:14:18.557,3917,998.046875,-10.7421875,-145.5078125,0.2956587752878394,-0.1356120828799594,-0.2211332162276816,-1772,-2311,-2387,3820,312,100686
12:14:18.577,3918,1008.7890625,11.71875,-143.5546875,0.2858849314766712,-0.11239920382843484,-0.2150245638457014,-1775,-2307,-2370,3820,312,100686
12:14:18.597,3919,1017.578125,31.25,-146.484375,0.2663372438543347,-0.07574728953655392,-0.20891591146372127,-1774,-2304,-2361,3820,312,100686
12:14:18.618,3920,1025.390625,10.7421875,-158.203125,0.2663372438543347,-0.06475171524898964,-0.1893682238413848,-1775,-2302,-2363,3820,312,100686
12:14:18.628,3921,1021.484375,13.671875,-182.6171875,0.2919935838586513,-0.06475171524898964,-0.17470745812463243,-1769,-2302,-2370,3820,312,100686
12:14:18.649,3922,1012.6953125,23.4375,-167.96875,0.2724458962363148,-0.0317649923862968,-0.1429424657383356,-1773,-2303,-2357,3820,312,100686
12:14:18.670,3923,1027.34375,19.53125,-161.1328125,0.2822197400474831,-0.004886921905584123,-0.1343903524035634,-1768,-2304,-2368,3820,312,100686
12:14:18.690,3924,1028.3203125,12.6953125,-171.875,0.30543261909900765,0.010995574287564277,-0.10018189906447451,-1772,-2304,-2377,3820,312,100686
12:14:18.710,3925,1019.53125,8.7890625,-178.7109375,0.2944370448114434,0.021991148575128554,-0.07330382858376185,-1771,-2296,-2369,3820,312,100686
12:14:18.721,3926,997.0703125,23.4375,-181.640625,0.2822197400474831,0.01832595714594046,-0.04031710572106901,-1769,-2300,-2377,3820,312,100686
12:14:18.741,3927,977.5390625,36.1328125,-183.59375,0.2748893571891069,0.0635299847725936,-0.019547687622336492,-1765,-2307,-2369,3820,312,100686
12:14:18.761,3928,980.46875,27.34375,-174.8046875,0.2748893571891069,0.04398229715025711,-0.0024434609527920616,-1771,-2304,-2378,3820,312,100686
12:14:18.782,3929,979.4921875,9.765625,-173.828125,0.2907718533822553,0.024434609527920613,-0.013439035240356337,-1773,-2304,-2386,3820,312,100686
12:14:18.792,3930,984.375,-3.90625,-172.8515625,0.2748893571891069,0.020769418098732523,0.0,-1752,-2294,-2385,3820,312,100686
12:14:18.813,3931,977.5390625,-19.53125,-168.9453125,0.19914206765255302,0.01710422666954443,0.01710422666954443,-1768,-2304,-2370,3820,312,100686
12:14:18.834,3932,992.1875,-17.578125,-165.0390625,0.10629055144645469,0.0158824961931484,0.0024434609527920616,-1770,-2301,-2376,3820,312,100686
12:14:18.854,3933,1001.953125,-19.53125,-162.109375,0.04276056667386108,0.0012217304763960308,0.006108652381980153,-1771,-2303,-2376,3820,312,100686
12:14:18.874,3934,1011.71875,-14.6484375,-162.109375,-0.03054326190990077,-0.025656340004316647,0.0024434609527920616,-1773,-2302,-2381,3820,312,100686
12:14:18.885,3935,1021.484375,-11.71875,-172.8515625,-0.0671951762017817,-0.03543018381548489,0.013439035240356337,-1774,-2304,-2376,3820,312,100686
12:14:18.905,3936,1012.6953125,-8.7890625,-173.828125,-0.10995574287564278,-0.052534410485029326,0.021991148575128554,-1765,-2303,-2384,3820,312,100686
12:14:18.926,3937,1009.765625,7.8125,-179.6875,-0.10506882097005865,-0.05986479334340551,0.025656340004316647,-1757,-2294,-2381,3820,312,100686
12:14:18.948,3938,999.0234375,7.8125,-173.828125,-0.12950343049797927,-0.06475171524898964,0.04276056667386108,-1766,-2301,-2377,3820,312,100686
12:14:18.958,3939,1001.953125,16.6015625,-172.8515625,-0.10995574287564278,-0.07574728953655392,0.058643062867009474,-1768,-2301,-2368,3820,312,100686
12:14:18.978,3940,1006.8359375,23.4375,-172.8515625,-0.10629055144645469,-0.10018189906447451,0.08429940287132612,-1767,-2307,-2371,3820,312,100686
12:14:18.998,3941,1015.625,29.296875,-176.7578125,-0.09651670763528641,-0.10018189906447451,0.07574728953655392,-1760,-2301,-2378,3820,312,100686
12:14:19.19,3942,1008.7890625,28.3203125,-178.7109375,-0.07574728953655392,-0.06841690667817772,0.07208209810736582,-1769,-2309,-2384,3820,312,100686
12:14:19.39,3943,996.09375,6.8359375,-175.78125,-0.10506882097005865,-0.06597344572538566,0.05375614096142535,-1769,-2310,-2375,3820,312,100686
12:14:19.49,3944,1001.953125,-3.90625,-167.96875,-0.12828170002158323,-0.048869219055841226,0.03665191429188092,-1773,-2311,-2380,3820,312,100686
12:14:19.70,3945,978.515625,-11.71875,-173.828125,-0.1502728485967118,-0.06841690667817772,0.03665191429188092,-1770,-2308,-2390,3820,312,100686
12:14:19.90,3946,985.3515625,-9.765625,-171.875,-0.19914206765255302,-0.048869219055841226,0.020769418098732523,-1773,-2303,-2378,3820,312,100686
12:14:19.111,3947,984.375,0.9765625,-175.78125,-0.23579398194443396,-0.03420845333908886,-0.0024434609527920616,-1769,-2305,-2375,3820,312,100686
12:14:19.131,3948,990.234375,4.8828125,-172.8515625,-0.278554548618295,-0.02809980095710871,-0.01710422666954443,-1764,-2308,-2376,3820,312,100686
12:14:19.141,3949,1003.90625,16.6015625,-187.5,-0.2700024352835228,-0.04153883619746505,-0.024434609527920613,-1758,-2300,-2369,3820,312,100686
12:14:19.161,3950,1025.390625,42.96875,-175.78125,-0.26267205242514663,-0.051312680008633295,-0.02809980095710871,-1772,-2305,-2380,3820,312,100686
12:14:19.181,3951,1026.3671875,41.9921875,-180.6640625,-0.2614503219487506,-0.029321531433504737,-0.024434609527920613,-1766,-2299,-2368,3820,312,100686
12:14:19.202,3952,1028.3203125,56.640625,-183.59375,-0.23579398194443396,-0.01832595714594046,-0.01832595714594046,-1777,-2298,-2358,3820,312,100687
12:14:19.212,3953,1024.4140625,63.4765625,-191.40625,-0.21746802479849348,-0.013439035240356337,0.0,-1777,-2304,-2362,3820,312,100687
12:14:19.232,3954,1018.5546875,73.2421875,-192.3828125,-0.17226399717184035,-0.023212879051524585,0.008552113334772215,-1775,-2296,-2367,3820,312,100687
12:14:19.253,3955,1002.9296875,76.171875,-188.4765625,-0.11606439525762292,0.009773843811168246,0.0024434609527920616,-1768,-2300,-2362,3820,312,100687
12:14:19.273,3956,990.234375,66.40625,-187.5,-0.0830776723949301,0.012217304763960306,0.0024434609527920616,-1772,-2301,-2358,3820,312,100687
12:14:19.294,3957,982.421875,50.78125,-191.40625,-0.04153883619746505,-0.0012217304763960308,0.0158824961931484,-1771,-2302,-2369,3820,312,100687
12:14:19.304,3958,975.5859375,30.2734375,-189.453125,-0.03298672286269283,-0.0024434609527920616,-0.0012217304763960308,-1754,-2295,-2375,3820,312,100687
12:14:19.324,3959,981.4453125,12.6953125,-184.5703125,-0.05986479334340551,0.0012217304763960308,-0.02809980095710871,-1775,-2305,-2363,3820,312,100687
12:14:19.345,3960,973.6328125,7.8125,-190.4296875,-0.10629055144645469,0.014660765716752368,-0.03787364476827696,-1770,-2305,-2359,3820,312,100687
12:14:19.416,3961,970.703125,19.53125,-191.40625,-0.197920337176157,0.0158824961931484,-0.04031710572106901,-1774,-2301,-2370,3820,312,100687
12:14:19.436,3962,987.3046875,32.2265625,-183.59375,-0.2614503219487506,-0.006108652381980153,-0.06841690667817772,-1773,-2296,-2357,3820,312,100687
12:14:19.457,3963,1002.9296875,45.8984375,-200.1953125,-0.28344147052387914,0.004886921905584123,-0.06841690667817772,-1773,-2296,-2361,3820,312,100687
12:14:19.467,3964,994.140625,72.265625,-204.1015625,-0.2553416695667704,0.012217304763960306,-0.05619960191421742,-1772,-2294,-2360,3820,312,100687
12:14:19.487,3965,993.1640625,93.75,-211.9140625,-0.20036379812894903,0.020769418098732523,-0.007330382858376184,-1771,-2291,-2362,3820,312,100687
12:14:19.508,3966,1021.484375,115.234375,-223.6328125,-0.12217304763960309,0.0317649923862968,0.023212879051524585,-1771,-2293,-2358,3820,312,100687
12:14:19.529,3967,1030.2734375,125.9765625,-200.1953125,-0.01710422666954443,0.04642575810304917,0.04276056667386108,-1774,-2294,-2362,3820,312,100687
12:14:19.549,3968,1025.390625,110.3515625,-194.3359375,0.12950343049797927,0.05009094953223726,0.08063421144213802,-1772,-2294,-2363,3820,312,100687
12:14:19.559,3969,1002.9296875,83.984375,-190.4296875,0.1869247628885927,0.03787364476827696,0.08063421144213802,-1752,-2286,-2360,3820,312,100687
12:14:19.580,3970,990.234375,45.8984375,-185.546875,0.18814649336498873,0.03420845333908886,0.07819075048934597,-1771,-2303,-2363,3820,312,100687
12:14:19.601,3971,988.28125,20.5078125,-181.640625,0.13194689145077132,0.004886921905584123,0.07208209810736582,-1771,-2302,-2366,3820,312,100687
12:14:19.622,3972,998.046875,17.578125,-181.640625,0.07086036763096978,-0.020769418098732523,0.058643062867009474,-1769,-2299,-2368,3820,312,100687
12:14:19.632,3973,999.0234375,30.2734375,-189.453125,0.004886921905584123,-0.007330382858376184,0.04031710572106901,-1770,-2303,-2365,3820,312,100687
12:14:19.653,3974,1004.8828125,47.8515625,-183.59375,-0.0317649923862968,-0.023212879051524585,0.020769418098732523,-1770,-2305,-2357,3820,312,100687
12:14:19.673,3975,1009.765625,51.7578125,-177.734375,-0.01832595714594046,-0.04153883619746505,0.029321531433504737,-1769,-2302,-2384,3820,312,100687
12:14:19.693,3976,1013.671875,43.9453125,-185.546875,0.021991148575128554,-0.04031710572106901,0.0024434609527920616,-1769,-2302,-2370,3820,312,100687
12:14:19.713,3977,1001.953125,41.9921875,-185.546875,0.04398229715025711,-0.04031710572106901,-0.004886921905584123,-1768,-2300,-2375,3820,312,100687
12:14:19.723,3978,987.3046875,42.96875,-181.640625,0.012217304763960306,-0.019547687622336492,-0.026878070480712675,-1770,-2302,-2374,3820,312,100687
12:14:19.744,3979,995.1171875,36.1328125,-180.6640625,0.01832595714594046,-0.03420845333908886,-0.03054326190990077,-1756,-2298,-2373,3820,312,100687
12:14:19.765,3980,1000.9765625,35.15625,-179.6875,0.01710422666954443,-0.04276056667386108,-0.0317649923862968,-1773,-2307,-2373,3820,312,100687
12:14:19.785,3981,989.2578125,32.2265625,-189.453125,0.004886921905584123,-0.03665191429188092,-0.05619960191421742,-1772,-2300,-2366,3820,312,100687
12:14:19.836,3982,1005.859375,31.25,-193.359375,-0.020769418098732523,0.003665191429188092,-0.06963863715457375,-1770,-2304,-2364,3820,312,100687
12:14:19.857,3983,1023.4375,32.2265625,-207.03125,0.039095375244672985,-0.0024434609527920616,-0.04153883619746505,-1773,-2299,-2365,3820,312,100687
12:14:19.877,3984,1028.3203125,50.78125,-203.125,0.11362093430483088,-0.006108652381980153,-0.03787364476827696,-1771,-2301,-2366,3820,312,100687
12:14:19.887,3985,1025.390625,61.5234375,-203.125,0.17226399717184035,-0.0158824961931484,-0.020769418098732523,-1767,-2302,-2373,3820,312,100687
12:14:19.908,3986,1006.8359375,60.546875,-196.2890625,0.21746802479849348,-0.024434609527920613,-0.052534410485029326,-1765,-2297,-2364,3820,312,100687
12:14:19.929,3987,1000.9765625,34.1796875,-177.734375,0.2345722514680379,-0.023212879051524585,-0.05986479334340551,-1771,-2304,-2371,3820,312,100687
12:14:19.949,3988,989.2578125,8.7890625,-188.4765625,0.23579398194443396,-0.021991148575128554,-0.08796459430051422,-1772,-2304,-2367,3820,312,100687
12:14:19.970,3989,989.2578125,-8.7890625,-186.5234375,0.14172073526193957,-0.021991148575128554,-0.09773843811168245,-1769,-2300,-2363,3820,312,100687
12:14:19.980,3990,989.2578125,-7.8125,-188.4765625,0.06963863715457375,-0.024434609527920613,-0.0952949771588904,-1772,-2302,-2365,3820,312,100687
12:14:20.0,3991,987.3046875,23.4375,-201.171875,0.05375614096142535,-0.03054326190990077,-0.08063421144213802,-1774,-2306,-2355,3820,312,100687
12:14:20.21,3992,993.1640625,27.34375,-186.5234375,0.01710422666954443,-0.06108652381980154,-0.0867428638241182,-1766,-2301,-2369,3820,312,100687
12:14:20.42,3993,998.046875,34.1796875,-185.546875,0.019547687622336492,-0.051312680008633295,-0.07208209810736582,-1764,-2299,-2374,3820,312,100687
12:14:20.52,3994,991.2109375,25.390625,-185.546875,0.0,-0.052534410485029326,-0.07941248096574201,-1766,-2301,-2373,3820,312,100687
12:14:20.73,3995,1002.9296875,15.625,-183.59375,-0.03054326190990077,-0.04520402762665313,-0.04031710572106901,-1770,-2302,-2376,3820,312,100687
12:14:20.94,3996,1000.0,19.53125,-192.3828125,-0.0671951762017817,-0.0317649923862968,-0.04398229715025711,-1770,-2301,-2370,3820,312,100687
12:14:20.114,3997,999.0234375,1.953125,-182.6171875,-0.11728612573401895,-0.026878070480712675,-0.03787364476827696,-1760,-2294,-2373,3820,312,100687
12:14:20.134,3998,1005.859375,-7.8125,-189.453125,-0.1356120828799594,-0.03420845333908886,-0.020769418098732523,-1767,-2292,-2371,3820,312,100687
12:14:20.144,3999,1018.5546875,-12.6953125,-199.21875,-0.2150245638457014,-0.03665191429188092,-0.0158824961931484,-1775,-2296,-2367,3820,312,100687
12:14:20.165,4000,1023.4375,10.7421875,-191.40625,-0.23335052099164189,-0.03665191429188092,0.0012217304763960308,-1762,-2292,-2360,3820,312,100687
12:14:20.186,4001,1005.859375,22.4609375,-185.546875,-0.2528982086139784,-0.020769418098732523,0.020769418098732523,-1771,-2297,-2362,3820,312,100687
12:14:20.206,4002,989.2578125,29.296875,-180.6640625,-0.2504547476611863,0.0,0.03787364476827696,-1771,-2295,-2374,3814,312,100683
12:14:20.216,4003,989.2578125,33.203125,-178.7109375,-0.23579398194443396,-0.012217304763960306,0.04031710572106901,-1768,-2294,-2368,3814,312,100683
12:14:20.237,4004,992.1875,44.921875,-171.875,-0.22602013813326569,-0.03420845333908886,0.05375614096142535,-1765,-2294,-2370,3814,312,100683
12:14:20.258,4005,993.1640625,42.96875,-165.0390625,-0.27733281814189903,-0.03665191429188092,0.052534410485029326,-1773,-2295,-2359,3814,312,100683
12:14:20.279,4006,998.046875,30.2734375,-178.7109375,-0.3042108886226117,-0.05375614096142535,0.05986479334340551,-1772,-2296,-2361,3814,312,100683
12:14:20.289,4007,1000.0,21.484375,-193.359375,-0.36163222101322506,-0.052534410485029326,0.05742133239061345,-1756,-2289,-2351,3814,312,100683
12:14:20.310,4008,995.1171875,20.5078125,-187.5,-0.3677408733952052,-0.04153883619746505,0.07696902001294993,-1772,-2294,-2358,3814,312,100683
12:14:20.330,4009,992.1875,38.0859375,-191.40625,-0.36896260387160124,-0.06108652381980154,0.0830776723949301,-1772,-2287,-2349,3814,312,100683
12:14:20.351,4010,992.1875,52.734375,-187.5,-0.34086280291449256,-0.029321531433504737,0.09040805525330627,-1769,-2295,-2363,3814,312,100683
12:14:20.371,4011,992.1875,56.640625,-171.875,-0.3530801076784529,-0.014660765716752368,0.08185594191853407,-1771,-2295,-2357,3814,312,100683
12:14:20.382,4012,980.46875,61.5234375,-175.78125,-0.3481931857728688,-0.03054326190990077,0.10140362954087055,-1773,-2291,-2347,3814,312,100683
12:14:20.403,4013,976.5625,72.265625,-186.5234375,-0.37018433434799736,-0.009773843811168246,0.10140362954087055,-1772,-2293,-2343,3814,312,100683
12:14:20.423,4014,989.2578125,68.359375,-182.6171875,-0.4288273972150068,0.026878070480712675,0.10018189906447451,-1754,-2286,-2346,3814,312,100683
12:14:20.444,4015,998.046875,74.21875,-181.640625,-0.39950586578150205,0.021991148575128554,0.12461650859239513,-1777,-2287,-2346,3814,312,100683
12:14:20.455,4016,1009.765625,86.9140625,-184.5703125,-0.3652974124424132,0.0317649923862968,0.11362093430483088,-1775,-2290,-2343,3814,312,100683
12:14:20.475,4017,1010.7421875,80.078125,-181.640625,-0.33964107243809655,0.05986479334340551,0.1356120828799594,-1777,-2281,-2346,3814,312,100683
12:14:20.496,4018,1005.859375,56.640625,-184.5703125,-0.3042108886226117,0.06841690667817772,0.12950343049797927,-1769,-2280,-2346,3814,312,100683
12:14:20.517,4019,1020.5078125,46.875,-182.6171875,-0.27611108766550296,0.07452555906015788,0.11850785621041499,-1771,-2285,-2355,3814,312,100683
12:14:20.527,4020,1001.953125,33.203125,-185.546875,-0.2748893571891069,0.0830776723949301,0.1307251609743753,-1774,-2289,-2356,3814,312,100683
12:14:20.548,4021,1006.8359375,29.296875,-199.21875,-0.26389378290154264,0.07330382858376185,0.12950343049797927,-1767,-2282,-2347,3814,312,100683
12:14:20.569,4022,1000.0,40.0390625,-195.3125,-0.278554548618295,0.07819075048934597,0.10873401239924674,-1775,-2291,-2346,3814,312,100683
12:14:20.589,4023,1012.6953125,59.5703125,-182.6171875,-0.2724458962363148,0.0830776723949301,0.09773843811168245,-1774,-2288,-2337,3814,312,100683
12:14:20.610,4024,1019.53125,68.359375,-172.8515625,-0.278554548618295,0.05986479334340551,0.07452555906015788,-1773,-2293,-2360,3814,312,100683
12:14:20.620,4025,1008.7890625,73.2421875,-173.828125,-0.2162462943220974,0.05375614096142535,0.08185594191853407,-1770,-2293,-2343,3814,312,100683
12:14:20.641,4026,994.140625,58.59375,-182.6171875,-0.2076941809873252,0.04642575810304917,0.06841690667817772,-1773,-2290,-2340,3814,312,100683
12:14:20.661,4027,1008.7890625,52.734375,-202.1484375,-0.19914206765255302,0.05375614096142535,0.05742133239061345,-1772,-2288,-2346,3814,312,100683
12:14:20.681,4028,1019.53125,50.78125,-192.3828125,-0.1942551457469689,0.04520402762665313,0.04276056667386108,-1769,-2287,-2348,3814,312,100683
12:14:20.692,4029,1002.9296875,57.6171875,-200.1953125,-0.1893682238413848,0.03787364476827696,0.03420845333908886,-1772,-2279,-2350,3814,312,100683
12:14:20.713,4030,1001.953125,76.171875,-198.2421875,-0.16737707526625623,0.058643062867009474,0.03665191429188092,-1773,-2288,-2352,3814,312,100683
12:14:20.754,4031,1001.953125,89.84375,-189.453125,-0.13316862192716736,0.051312680008633295,0.03787364476827696,-1769,-2285,-2343,3814,312,100683
12:14:20.764,4032,999.0234375,80.078125,-185.546875,-0.0671951762017817,0.04398229715025711,0.021991148575128554,-1772,-2285,-2356,3814,312,100683
12:14:20.784,4033,984.375,68.359375,-194.3359375,-0.039095375244672985,0.04520402762665313,0.019547687622336492,-1771,-2284,-2343,3814,312,100683
12:14:20.805,4034,990.234375,73.2421875,-194.3359375,-0.003665191429188092,0.03054326190990077,0.01832595714594046,-1769,-2284,-2349,3814,312,100683
12:14:20.825,4035,1002.9296875,77.1484375,-193.359375,0.010995574287564277,0.04153883619746505,0.029321531433504737,-1764,-2286,-2340,3814,312,100683
12:14:20.846,4036,1017.578125,96.6796875,-183.59375,0.07819075048934597,0.007330382858376184,0.03787364476827696,-1773,-2293,-2346,3814,312,100683
12:14:20.856,4037,1018.5546875,93.75,-176.7578125,0.14049900478554353,0.0,0.04153883619746505,-1773,-2294,-2348,3814,312,100683
12:14:20.876,4038,1002.9296875,64.453125,-171.875,0.1905899543177808,-0.025656340004316647,0.02809980095710871,-1773,-2295,-2347,3814,312,100683
12:14:20.897,4039,1009.765625,39.0625,-172.8515625,0.1954768762233649,-0.021991148575128554,0.01710422666954443,-1768,-2297,-2351,3814,312,100683
12:14:20.918,4040,1010.7421875,35.15625,-179.6875,0.1954768762233649,-0.05375614096142535,0.0012217304763960308,-1773,-2294,-2351,3814,312,100683
12:14:20.928,4041,1000.0,36.1328125,-179.6875,0.16371188383706814,-0.05497787143782139,-0.004886921905584123,-1768,-2297,-2355,3814,312,100683
12:14:20.948,4042,991.2109375,52.734375,-172.8515625,0.16493361431346415,-0.04520402762665313,-0.03054326190990077,-1751,-2291,-2345,3814,312,100683
12:14:20.968,4043,1005.859375,36.1328125,-171.875,0.1734857276482364,-0.04642575810304917,-0.05497787143782139,-1771,-2297,-2351,3814,312,100683
12:14:20.989,4044,1025.390625,41.9921875,-166.9921875,0.1942551457469689,-0.051312680008633295,-0.07819075048934597,-1769,-2290,-2361,3814,312,100683
12:14:21.20,4045,1028.3203125,52.734375,-170.8984375,0.2223549467040776,-0.06475171524898964,-0.07941248096574201,-1769,-2292,-2352,3814,312,100683
12:14:21.40,4046,1044.921875,64.453125,-163.0859375,0.1869247628885927,-0.05619960191421742,-0.07452555906015788,-1763,-2288,-2352,3814,312,100683
12:14:21.60,4047,1052.734375,61.5234375,-180.6640625,0.21746802479849348,-0.04520402762665313,-0.07941248096574201,-1778,-2290,-2358,3814,312,100683
12:14:21.81,4048,1037.109375,63.4765625,-181.640625,0.28099800957108706,-0.029321531433504737,-0.08429940287132612,-1773,-2293,-2355,3814,312,100683
12:14:21.173,4049,1024.4140625,36.1328125,-179.6875,0.3029891581462157,-0.0671951762017817,-0.08063421144213802,-1775,-2291,-2353,3814,312,100683
12:14:21.183,4050,1003.90625,33.203125,-185.546875,0.3628539514896212,-0.07086036763096978,-0.06597344572538566,-1774,-2297,-2353,3814,312,100683
12:14:21.204,4051,989.2578125,25.390625,-166.9921875,0.37507125625358145,-0.08796459430051422,-0.07696902001294993,-1774,-2295,-2362,3814,312,100683
12:14:21.224,4052,979.4921875,6.8359375,-174.8046875,0.3799581781591656,-0.09040805525330627,-0.09773843811168245,-1769,-2294,-2362,3820,312,100683
12:14:21.244,4053,972.65625,5.859375,-166.9921875,0.33597588100890846,-0.09162978572970232,-0.0952949771588904,-1770,-2293,-2364,3820,312,100683
12:14:21.265,4054,972.65625,11.71875,-167.96875,0.27611108766550296,-0.10629055144645469,-0.09407324668249437,-1778,-2296,-2349,3820,312,100683
12:14:21.275,4055,981.4453125,14.6484375,-174.8046875,0.23579398194443396,-0.0952949771588904,-0.09651670763528641,-1774,-2297,-2347,3820,312,100683
12:14:21.296,4056,992.1875,26.3671875,-183.59375,0.2296853295624538,-0.07452555906015788,-0.10140362954087055,-1760,-2290,-2352,3820,312,100683
12:14:21.316,4057,1001.953125,27.34375,-183.59375,0.2431243648028101,-0.0635299847725936,-0.10629055144645469,-1773,-2294,-2355,3820,312,100683
12:14:21.337,4058,1005.859375,25.390625,-183.59375,0.2419026343264141,-0.048869219055841226,-0.09773843811168245,-1776,-2294,-2354,3820,312,100683
12:14:21.347,4059,1009.765625,23.4375,-183.59375,0.2516764781375823,-0.04031710572106901,-0.09040805525330627,-1775,-2298,-2357,3820,312,100683
12:14:21.368,4060,1006.8359375,15.625,-178.7109375,0.23945917337362205,-0.013439035240356337,-0.07819075048934597,-1776,-2300,-2354,3820,312,100683
12:14:21.388,4061,995.1171875,14.6484375,-184.5703125,0.21746802479849348,-0.013439035240356337,-0.07452555906015788,-1774,-2297,-2353,3820,312,100683
12:14:21.409,4062,987.3046875,22.4609375,-184.5703125,0.18570303241219668,0.010995574287564277,-0.051312680008633295,-1774,-2297,-2356,3820,312,100683
12:14:21.430,4063,983.3984375,8.7890625,-182.6171875,0.15638150097869194,0.01710422666954443,-0.0635299847725936,-1764,-2295,-2357,3820,312,100683
12:14:21.440,4064,990.234375,20.5078125,-176.7578125,0.12828170002158323,0.026878070480712675,-0.04642575810304917,-1771,-2293,-2368,3820,312,100683
12:14:21.460,4065,994.140625,16.6015625,-186.5234375,0.11850785621041499,0.014660765716752368,-0.04276056667386108,-1773,-2293,-2363,3820,312,100683
12:14:21.481,4066,1002.9296875,22.4609375,-179.6875,0.10506882097005865,0.03054326190990077,-0.052534410485029326,-1769,-2295,-2356,3820,312,100683
12:14:21.502,4067,1008.7890625,19.53125,-192.3828125,0.08429940287132612,0.04031710572106901,-0.025656340004316647,-1771,-2296,-2355,3820,312,100683
12:14:21.512,4068,1009.765625,16.6015625,-187.5,0.039095375244672985,0.03420845333908886,-0.03420845333908886,-1771,-2298,-2349,3820,312,100683
12:14:21.532,4069,1000.9765625,22.4609375,-193.359375,0.019547687622336492,0.03543018381548489,-0.0158824961931484,-1774,-2295,-2367,3820,312,100683
12:14:21.553,4070,998.046875,33.203125,-183.59375,0.026878070480712675,0.03665191429188092,0.0012217304763960308,-1768,-2290,-2361,3820,312,100683
12:14:21.574,4071,991.2109375,31.25,-196.2890625,0.04642575810304917,0.058643062867009474,0.0012217304763960308,-1772,-2300,-2359,3820,312,100683
12:14:21.594,4072,984.375,25.390625,-190.4296875,0.04520402762665313,0.03787364476827696,0.01710422666954443,-1774,-2296,-2357,3820,312,100683
12:14:21.604,4073,987.3046875,33.203125,-185.546875,0.029321531433504737,0.03420845333908886,0.026878070480712675,-1772,-2298,-2364,3820,312,100683
12:14:21.625,4074,990.234375,37.109375,-168.9453125,0.007330382858376184,0.008552113334772215,0.04031710572106901,-1767,-2299,-2361,3820,312,100683
12:14:21.645,4075,1002.9296875,31.25,-176.7578125,0.020769418098732523,-0.0012217304763960308,0.039095375244672985,-1770,-2299,-2361,3820,312,100683
12:14:21.666,4076,1011.71875,12.6953125,-180.6640625,-0.024434609527920613,0.014660765716752368,0.019547687622336492,-1759,-2292,-2364,3820,312,100683
12:14:21.686,4077,1017.578125,2.9296875,-180.6640625,-0.08429940287132612,0.01832595714594046,0.01832595714594046,-1754,-2286,-2352,3820,312,100683
12:14:21.696,4078,1005.859375,1.953125,-180.6640625,-0.1233947781159991,0.010995574287564277,0.03054326190990077,-1772,-2297,-2351,3820,312,100683
12:14:21.717,4079,988.28125,-21.484375,-168.9453125,-0.16982053621904827,-0.006108652381980153,0.0012217304763960308,-1767,-2296,-2367,3820,312,100683
12:14:21.738,4080,980.46875,-33.203125,-174.8046875,-0.2211332162276816,-0.007330382858376184,-0.025656340004316647,-1772,-2291,-2359,3820,312,100683
12:14:21.758,4081,989.2578125,-40.0390625,-179.6875,-0.32131511529215606,-0.012217304763960306,-0.058643062867009474,-1764,-2292,-2359,3820,312,100683
12:14:21.769,4082,1004.8828125,-16.6015625,-182.6171875,-0.4043927876870862,-0.03420845333908886,-0.06230825429619757,-1769,-2290,-2358,3820,312,100683
12:14:21.789,4083,1013.671875,16.6015625,-188.4765625,-0.4312708581677988,-0.03054326190990077,-0.0476474885794452,-1771,-2291,-2363,3820,312,100683
12:14:21.810,4084,1010.7421875,65.4296875,-189.453125,-0.40805797911627434,-0.025656340004316647,-0.021991148575128554,-1759,-2289,-2355,3820,312,100683
12:14:21.831,4085,1008.7890625,75.1953125,-173.828125,-0.3738495257771854,-0.03298672286269283,-0.009773843811168246,-1772,-2289,-2356,3820,312,100683
12:14:21.841,4086,1004.8828125,94.7265625,-181.640625,-0.2871066619530672,-0.04642575810304917,0.01710422666954443,-1772,-2295,-2355,3820,312,100683
12:14:21.861,4087,1001.953125,88.8671875,-192.3828125,-0.20647245051092922,-0.048869219055841226,0.05375614096142535,-1767,-2290,-2352,3820,312,100683
12:14:21.882,4088,1001.953125,68.359375,-197.265625,-0.15760323145508798,-0.03298672286269283,0.06841690667817772,-1768,-2290,-2349,3820,312,100683
12:14:21.902,4089,1000.9765625,27.34375,-192.3828125,-0.12217304763960309,-0.04031710572106901,0.06963863715457375,-1777,-2288,-2350,3820,312,100683
12:14:21.923,4090,1000.9765625,13.671875,-185.546875,-0.14538592669112765,-0.05986479334340551,0.08552113334772216,-1774,-2290,-2351,3820,312,100683
12:14:21.933,4091,995.1171875,3.90625,-179.6875,-0.16982053621904827,-0.0317649923862968,0.09040805525330627,-1757,-2280,-2356,3820,312,100683
12:14:21.953,4092,1005.859375,-0.0,-183.59375,-0.20402898955813717,-0.0317649923862968,0.09162978572970232,-1776,-2292,-2352,3820,312,100683
12:14:21.974,4093,1014.6484375,10.7421875,-188.4765625,-0.2419026343264141,-0.03787364476827696,0.08429940287132612,-1774,-2287,-2347,3820,312,100683
12:14:22.15,4094,1015.625,26.3671875,-197.265625,-0.30543261909900765,-0.021991148575128554,0.10140362954087055,-1775,-2292,-2341,3820,312,100683
12:14:22.25,4095,1027.34375,41.9921875,-181.640625,-0.31764992386296803,-0.048869219055841226,0.11728612573401895,-1774,-2291,-2338,3820,312,100683
12:14:22.46,4096,1030.2734375,45.8984375,-185.546875,-0.31642819338657197,-0.026878070480712675,0.1148426647812269,-1779,-2289,-2338,3820,312,100683
12:14:22.66,4097,1015.625,52.734375,-190.4296875,-0.27977627909469105,-0.019547687622336492,0.16371188383706814,-1777,-2281,-2330,3820,312,100683
12:14:22.87,4098,1005.859375,63.4765625,-179.6875,-0.24068090385001806,-0.03054326190990077,0.1502728485967118,-1764,-2279,-2350,3820,312,100683
12:14:22.98,4099,1018.5546875,60.546875,-168.9453125,-0.2150245638457014,-0.004886921905584123,0.15271630954950383,-1779,-2286,-2338,3820,312,100683
12:14:22.118,4100,1018.5546875,32.2265625,-173.828125,-0.2467895562319982,0.012217304763960306,0.1478293876439197,-1775,-2286,-2340,3820,312,100683
12:14:22.281,4101,1003.90625,24.4140625,-177.734375,-0.278554548618295,0.01710422666954443,0.15149457907310784,-1776,-2284,-2331,3820,312,100683
12:14:22.302,4102,999.0234375,27.34375,-187.5,-0.3274237676741363,0.012217304763960306,0.1478293876439197,-1775,-2285,-2332,3820,312,100686
12:14:22.323,4103,980.46875,37.109375,-195.3125,-0.33108895910332437,0.0158824961931484,0.15638150097869194,-1771,-2292,-2348,3820,312,100686
12:14:22.344,4104,975.5859375,58.59375,-188.4765625,-0.33108895910332437,0.02809980095710871,0.15638150097869194,-1774,-2287,-2334,3820,312,100686
12:14:22.354,4105,970.703125,78.125,-194.3359375,-0.3066543495754037,0.02809980095710871,0.17715091907742447,-1779,-2288,-2341,3820,312,100686
12:14:22.374,4106,982.421875,91.796875,-194.3359375,-0.2296853295624538,0.026878070480712675,0.20036379812894903,-1779,-2282,-2346,3820,312,100686
12:14:22.395,4107,990.234375,91.796875,-191.40625,-0.15271630954950383,0.03665191429188092,0.197920337176157,-1779,-2289,-2338,3820,312,100686
12:14:22.415,4108,1001.953125,78.125,-190.4296875,-0.06597344572538566,0.0476474885794452,0.2150245638457014,-1775,-2288,-2343,3820,312,100686
12:14:22.425,4109,1014.6484375,82.03125,-197.265625,0.0,0.029321531433504737,0.2211332162276816,-1779,-2286,-2336,3820,312,100686
12:14:22.446,4110,1014.6484375,63.4765625,-184.5703125,0.05497787143782139,0.04153883619746505,0.238237442897226,-1778,-2292,-2333,3820,312,100686
12:14:22.466,4111,1016.6015625,42.96875,-184.5703125,0.05375614096142535,0.04153883619746505,0.20402898955813717,-1779,-2296,-2335,3820,312,100686
12:14:22.487,4112,1007.8125,32.2265625,-192.3828125,0.09285151620609834,0.039095375244672985,0.17715091907742447,-1766,-2299,-2345,3820,312,100686
12:14:22.507,4113,1001.953125,28.3203125,-184.5703125,0.1148426647812269,0.0317649923862968,0.16982053621904827,-1779,-2305,-2345,3820,312,100686
12:14:22.517,4114,1006.8359375,22.4609375,-193.359375,0.12217304763960309,0.013439035240356337,0.12583823906879116,-1779,-2304,-2344,3820,312,100686
12:14:22.538,4115,1027.34375,36.1328125,-186.5234375,0.15882496193148402,-0.0024434609527920616,0.10262536001726659,-1780,-2302,-2339,3820,312,100686
12:14:22.558,4116,1038.0859375,43.9453125,-190.4296875,0.16249015336067207,0.007330382858376184,0.06230825429619757,-1775,-2305,-2346,3820,312,100686
12:14:22.579,4117,1041.015625,52.734375,-194.3359375,0.20647245051092922,-0.019547687622336492,0.020769418098732523,-1779,-2308,-2340,3820,312,100686
12:14:22.589,4118,1032.2265625,54.6875,-206.0546875,0.2553416695667704,-0.03787364476827696,0.013439035240356337,-1780,-2306,-2349,3820,312,100686
12:14:22.609,4119,1023.4375,51.7578125,-193.359375,0.3005456971934236,-0.03543018381548489,-0.007330382858376184,-1757,-2300,-2351,3820,312,100686
12:14:22.630,4120,1002.9296875,41.9921875,-196.2890625,0.35674529910764097,-0.06108652381980154,-0.023212879051524585,-1780,-2312,-2346,3820,312,100686
12:14:22.650,4121,988.28125,48.828125,-191.40625,0.4324925886441948,-0.07208209810736582,-0.06841690667817772,-1781,-2312,-2356,3820,312,100686
12:14:22.671,4122,982.421875,8.7890625,-181.640625,0.4324925886441948,-0.07574728953655392,-0.12828170002158323,-1780,-2310,-2351,3820,312,100686
12:14:22.681,4123,980.46875,-21.484375,-181.640625,0.4312708581677988,-0.0952949771588904,-0.16859880574265224,-1783,-2313,-2344,3820,312,100686
12:14:22.701,4124,976.5625,-30.2734375,-182.6171875,0.3787364476827696,-0.1038470904936626,-0.21991148575128555,-1781,-2312,-2341,3820,312,100686
12:14:22.722,4125,982.421875,-27.34375,-183.59375,0.32375857624494814,-0.09651670763528641,-0.23579398194443396,-1778,-2310,-2352,3820,312,100686
12:14:22.743,4126,998.046875,-17.578125,-189.453125,0.2724458962363148,-0.09651670763528641,-0.2467895562319982,-1773,-2310,-2348,3820,312,100686
12:14:22.753,4127,1002.9296875,-1.953125,-190.4296875,0.2956587752878394,-0.1075122819228507,-0.2736676267127109,-1781,-2306,-2341,3820,312,100686
12:14:22.773,4128,1000.9765625,-0.0,-184.5703125,0.27733281814189903,-0.10506882097005865,-0.2919935838586513,-1781,-2309,-2352,3820,312,100686
12:14:22.794,4129,1001.953125,-8.7890625,-176.7578125,0.2700024352835228,-0.09285151620609834,-0.29810223624063154,-1784,-2303,-2345,3820,312,100686
12:14:22.814,4130,999.0234375,-6.8359375,-174.8046875,0.24434609527920617,-0.07086036763096978,-0.2748893571891069,-1770,-2298,-2349,3820,312,100686
12:14:22.834,4131,999.0234375,-7.8125,-179.6875,0.25656340004316647,-0.08918632477691024,-0.26389378290154264,-1782,-2301,-2344,3820,312,100686
12:14:22.845,4132,994.140625,-2.9296875,-180.6640625,0.2516764781375823,-0.08063421144213802,-0.2528982086139784,-1782,-2302,-2357,3820,312,100686
12:14:22.865,4133,1000.0,-6.8359375,-185.546875,0.2113593724165133,-0.039095375244672985,-0.24434609527920617,-1777,-2297,-2341,3820,312,100686
12:14:22.886,4134,1001.953125,-13.671875,-181.640625,0.1905899543177808,-0.03543018381548489,-0.23701571242082997,-1784,-2298,-2350,3820,312,100686
12:14:22.907,4135,1003.90625,-19.53125,-188.4765625,0.1942551457469689,-0.024434609527920613,-0.19669860669976097,-1783,-2301,-2361,3820,312,100686
12:14:22.917,4136,1002.9296875,-21.484375,-195.3125,0.14416419621473164,-0.014660765716752368,-0.17837264955382048,-1782,-2296,-2346,3820,312,100686
12:14:22.938,4137,1000.9765625,-2.9296875,-203.125,0.14905111812031577,-0.013439035240356337,-0.15882496193148402,-1774,-2296,-2354,3820,312,100686
12:14:22.959,4138,1004.8828125,12.6953125,-198.2421875,0.13683381335635544,0.01832595714594046,-0.1148426647812269,-1776,-2297,-2344,3820,312,100686
12:14:22.980,4139,1000.0,19.53125,-196.2890625,0.13805554383275148,0.006108652381980153,-0.08063421144213802,-1776,-2297,-2347,3820,312,100686
12:14:23.1,4140,999.0234375,16.6015625,-194.3359375,0.16126842288427604,0.0,-0.051312680008633295,-1772,-2291,-2349,3820,312,100686
12:14:23.11,4141,990.234375,2.9296875,-196.2890625,0.15760323145508798,0.021991148575128554,-0.03787364476827696,-1774,-2293,-2351,3820,312,100686
12:14:23.32,4142,990.234375,11.71875,-210.9375,0.1466076571675237,0.023212879051524585,-0.0158824961931484,-1776,-2292,-2346,3820,312,100686
12:14:23.52,4143,992.1875,8.7890625,-203.125,0.1233947781159991,0.010995574287564277,0.012217304763960306,-1775,-2297,-2350,3820,312,100686
12:14:23.73,4144,1001.953125,25.390625,-201.171875,0.13805554383275148,0.01710422666954443,0.03420845333908886,-1776,-2295,-2356,3820,312,100686
12:14:23.83,4145,1000.9765625,31.25,-208.984375,0.1661553447898602,0.039095375244672985,0.058643062867009474,-1774,-2298,-2347,3820,312,100686
12:14:23.104,4146,992.1875,7.8125,-203.125,0.13805554383275148,0.04520402762665313,0.04520402762665313,-1777,-2298,-2348,3820,312,100686
12:14:23.124,4147,986.328125,-6.8359375,-195.3125,0.1038470904936626,0.04276056667386108,0.048869219055841226,-1773,-2297,-2351,3820,312,100686
12:14:23.145,4148,978.515625,-11.71875,-203.125,0.05742133239061345,0.026878070480712675,0.03665191429188092,-1780,-2297,-2352,3820,312,100686
12:14:23.165,4149,992.1875,10.7421875,-192.3828125,0.019547687622336492,0.029321531433504737,0.03420845333908886,-1779,-2302,-2347,3820,312,100686
12:14:23.175,4150,993.1640625,29.296875,-183.59375,-0.01710422666954443,0.04031710572106901,0.05009094953223726,-1781,-2299,-2343,3820,312,100686
12:14:23.196,4151,1000.0,30.2734375,-200.1953125,-0.025656340004316647,0.026878070480712675,0.058643062867009474,-1775,-2299,-2348,3820,312,100686
12:14:23.217,4152,1005.859375,35.15625,-194.3359375,0.010995574287564277,0.014660765716752368,0.04153883619746505,-1776,-2301,-2343,3814,312,100692
12:14:23.238,4153,998.046875,36.1328125,-197.265625,0.024434609527920613,0.014660765716752368,0.07086036763096978,-1779,-2299,-2346,3814,312,100692
12:14:23.249,4154,1000.9765625,34.1796875,-191.40625,0.0317649923862968,0.025656340004316647,0.05375614096142535,-1758,-2293,-2356,3814,312,100692
12:14:23.269,4155,999.0234375,32.2265625,-184.5703125,0.025656340004316647,0.012217304763960306,0.05497787143782139,-1776,-2298,-2352,3814,312,100692
12:14:23.290,4156,1002.9296875,39.0625,-177.734375,0.04153883619746505,0.014660765716752368,0.06963863715457375,-1778,-2302,-2360,3814,312,100692
12:14:23.310,4157,1000.0,31.25,-178.7109375,0.019547687622336492,-0.0024434609527920616,0.05742133239061345,-1774,-2308,-2357,3814,312,100692
12:14:23.320,4158,1000.0,17.578125,-186.5234375,0.026878070480712675,0.021991148575128554,0.051312680008633295,-1767,-2299,-2361,3814,312,100692
12:14:23.341,4159,1004.8828125,3.90625,-179.6875,0.0158824961931484,0.012217304763960306,0.025656340004316647,-1774,-2304,-2352,3814,312,100692
12:14:23.362,4160,1007.8125,13.671875,-180.6640625,-0.020769418098732523,-0.009773843811168246,0.025656340004316647,-1775,-2308,-2345,3814,312,100692
12:14:23.382,4161,1008.7890625,29.296875,-185.546875,-0.01710422666954443,0.012217304763960306,0.014660765716752368,-1774,-2303,-2353,3814,312,100692
12:14:23.403,4162,1005.859375,45.8984375,-184.5703125,-0.007330382858376184,0.02809980095710871,0.008552113334772215,-1776,-2305,-2357,3814,312,100692
12:14:23.413,4163,1006.8359375,52.734375,-174.8046875,0.004886921905584123,0.014660765716752368,0.03298672286269283,-1778,-2310,-2353,3814,312,100692
12:14:23.433,4164,995.1171875,40.0390625,-178.7109375,0.0671951762017817,0.0012217304763960308,0.014660765716752368,-1777,-2305,-2351,3814,312,100692
12:14:23.454,4165,1000.0,29.296875,-173.828125,0.08063421144213802,0.007330382858376184,0.009773843811168246,-1781,-2304,-2358,3814,312,100692
12:14:23.474,4166,1001.953125,13.671875,-172.8515625,0.06963863715457375,0.04520402762665313,0.007330382858376184,-1774,-2305,-2354,3814,312,100692
12:14:23.484,4167,1010.7421875,21.484375,-175.78125,0.05375614096142535,0.048869219055841226,0.006108652381980153,-1775,-2308,-2348,3814,312,100692
12:14:23.546,4168,1026.3671875,27.34375,-167.96875,0.04153883619746505,0.05742133239061345,0.010995574287564277,-1762,-2303,-2353,3814,312,100692
12:14:23.567,4169,1022.4609375,32.2265625,-173.828125,0.05009094953223726,0.0476474885794452,0.010995574287564277,-1777,-2311,-2354,3814,312,100692
12:14:23.577,4170,1008.7890625,38.0859375,-179.6875,0.1038470904936626,0.048869219055841226,0.006108652381980153,-1779,-2309,-2358,3814,312,100692
12:14:23.598,4171,996.09375,31.25,-166.015625,0.1502728485967118,0.07208209810736582,0.010995574287564277,-1780,-2308,-2353,3814,312,100692
12:14:23.619,4172,998.046875,30.2734375,-161.1328125,0.18814649336498873,0.06108652381980154,-0.012217304763960306,-1777,-2307,-2360,3814,312,100692
12:14:23.639,4173,1006.8359375,8.7890625,-160.15625,0.19181168479417682,0.07330382858376185,-0.007330382858376184,-1777,-2310,-2369,3814,312,100692
12:14:23.649,4174,1020.5078125,8.7890625,-166.015625,0.18325957145940464,0.07819075048934597,0.0024434609527920616,-1778,-2308,-2370,3814,312,100692
12:14:23.670,4175,1022.4609375,16.6015625,-166.9921875,0.15393804002589986,0.09285151620609834,0.021991148575128554,-1764,-2303,-2361,3814,312,100692
12:14:23.691,4176,1011.71875,15.625,-151.3671875,0.11850785621041499,0.10873401239924674,0.04153883619746505,-1777,-2303,-2360,3814,312,100692
12:14:23.711,4177,1007.8125,24.4140625,-163.0859375,0.13683381335635544,0.11362093430483088,0.04642575810304917,-1778,-2308,-2363,3814,312,100692
12:14:23.732,4178,1011.71875,24.4140625,-152.34375,0.12583823906879116,0.13316862192716736,0.03787364476827696,-1772,-2308,-2363,3814,312,100692
12:14:23.743,4179,1026.3671875,0.9765625,-147.4609375,0.16982053621904827,0.10873401239924674,0.01710422666954443,-1771,-2309,-2368,3814,312,100692
12:14:23.763,4180,1038.0859375,-17.578125,-154.296875,0.2296853295624538,0.1038470904936626,-0.008552113334772215,-1775,-2310,-2361,3814,312,100692
12:14:23.783,4181,1034.1796875,-53.7109375,-153.3203125,0.2150245638457014,0.08552113334772216,-0.039095375244672985,-1776,-2314,-2376,3814,312,100692
12:14:23.804,4182,1016.6015625,-53.7109375,-166.015625,0.14905111812031577,0.09407324668249437,-0.058643062867009474,-1763,-2309,-2371,3814,312,100692
12:14:23.814,4183,1020.5078125,-42.96875,-171.875,0.03420845333908886,0.09773843811168245,-0.0671951762017817,-1769,-2317,-2378,3814,312,100692
12:14:23.834,4184,1032.2265625,-22.4609375,-168.9453125,-0.008552113334772215,0.06475171524898964,-0.0830776723949301,-1774,-2315,-2383,3814,312,100692
12:14:23.854,4185,1027.34375,-2.9296875,-175.78125,0.004886921905584123,0.048869219055841226,-0.07330382858376185,-1769,-2309,-2372,3814,312,100692
12:14:23.875,4186,1005.859375,11.71875,-171.875,0.05742133239061345,0.04398229715025711,-0.0952949771588904,-1763,-2310,-2384,3814,312,100692
12:14:23.895,4187,989.2578125,21.484375,-174.8046875,0.10018189906447451,0.04031710572106901,-0.07696902001294993,-1768,-2312,-2388,3814,312,100692
12:14:23.906,4188,973.6328125,29.296875,-171.875,0.10873401239924674,0.026878070480712675,-0.0671951762017817,-1767,-2308,-2387,3814,312,100692
12:14:23.926,4189,981.4453125,33.203125,-167.96875,0.12583823906879116,0.013439035240356337,-0.06108652381980154,-1765,-2309,-2390,3814,312,100692
12:14:23.946,4190,1005.859375,30.2734375,-147.4609375,0.1551597705022959,-0.0158824961931484,-0.06230825429619757,-1770,-2307,-2380,3814,312,100692
12:14:23.967,4191,1010.7421875,20.5078125,-153.3203125,0.15149457907310784,0.0,-0.058643062867009474,-1765,-2314,-2374,3814,312,100692
12:14:23.988,4192,1021.484375,-10.7421875,-169.921875,0.1661553447898602,-0.0158824961931484,-0.03665191429188092,-1768,-2311,-2373,3814,312,100692
12:14:23.998,4193,1006.8359375,-1.953125,-177.734375,0.16737707526625623,-0.03054326190990077,-0.02809980095710871,-1766,-2315,-2381,3814,312,100692
12:14:24.19,4194,991.2109375,13.671875,-182.6171875,0.18081611050661253,-0.03420845333908886,-0.026878070480712675,-1771,-2315,-2375,3814,312,100692
12:14:24.40,4195,996.09375,20.5078125,-159.1796875,0.18814649336498873,-0.025656340004316647,-0.03543018381548489,-1766,-2310,-2367,3814,312,100692
12:14:24.60,4196,992.1875,11.71875,-150.390625,0.2504547476611863,-0.021991148575128554,-0.058643062867009474,-1754,-2306,-2391,3814,312,100692
12:14:24.70,4197,993.1640625,-3.90625,-159.1796875,0.2895501229058593,-0.03787364476827696,-0.039095375244672985,-1770,-2308,-2392,3814,312,100692
12:14:24.90,4198,999.0234375,-22.4609375,-174.8046875,0.2736676267127109,-0.02809980095710871,-0.0317649923862968,-1770,-2313,-2378,3814,312,100692
12:14:24.111,4199,1000.0,-31.25,-180.6640625,0.2076941809873252,0.3078760800517997,-0.03298672286269283,-1771,-2319,-2371,3814,312,100692
12:14:24.132,4200,1008.7890625,-25.390625,-172.8515625,0.1343903524035634,0.010995574287564277,-0.010995574287564277,-1768,-2316,-2389,3814,312,100692
12:14:24.143,4201,1022.4609375,-16.6015625,-167.96875,0.0867428638241182,0.003665191429188092,-0.021991148575128554,-1771,-2322,-2386,3814,312,100692
12:14:24.163,4202,1021.484375,-0.0,-148.4375,0.07330382858376185,0.0024434609527920616,-0.03787364476827696,-1769,-2318,-2386,3820,312,100690
12:14:24.183,4203,1006.8359375,4.8828125,-147.4609375,0.06108652381980154,0.006108652381980153,-0.03298672286269283,-1755,-2313,-2389,3820,312,100690
12:14:24.204,4204,994.140625,-0.9765625,-153.3203125,0.014660765716752368,0.003665191429188092,-0.004886921905584123,-1770,-2313,-2388,3820,312,100690
12:14:24.224,4205,994.140625,8.7890625,-158.203125,-0.0012217304763960308,0.0,-0.007330382858376184,-1747,-2311,-2387,3820,312,100690
12:14:24.234,4206,986.328125,14.6484375,-162.109375,-0.024434609527920613,-0.0012217304763960308,0.0024434609527920616,-1764,-2316,-2392,3820,312,100690
12:14:24.254,4207,990.234375,21.484375,-154.296875,-0.01832595714594046,-0.0024434609527920616,-0.006108652381980153,-1758,-2312,-2379,3820,312,100690
12:14:24.275,4208,1005.859375,13.671875,-153.3203125,-0.010995574287564277,0.009773843811168246,0.0012217304763960308,-1768,-2317,-2382,3820,312,100690
12:14:24.295,4209,1007.8125,7.8125,-142.578125,0.0,-0.004886921905584123,0.0,-1765,-2317,-2392,3820,312,100690
12:14:24.306,4210,1014.6484375,4.8828125,-152.34375,-0.012217304763960306,0.013439035240356337,-0.0024434609527920616,-1768,-2315,-2386,3820,312,100690
12:14:24.326,4211,1015.625,1.953125,-156.25,-0.03298672286269283,0.025656340004316647,-0.012217304763960306,-1767,-2313,-2384,3820,312,100690
12:14:24.346,4212,1008.7890625,4.8828125,-154.296875,-0.039095375244672985,0.03543018381548489,0.0,-1770,-2314,-2385,3820,312,100690
12:14:24.388,4213,1000.0,2.9296875,-154.296875,-0.03298672286269283,0.021991148575128554,-0.007330382858376184,-1760,-2311,-2392,3820,312,100690
12:14:24.398,4214,1002.9296875,14.6484375,-148.4375,-0.039095375244672985,0.025656340004316647,-0.012217304763960306,-1765,-2315,-2390,3820,312,100690
12:14:24.419,4215,1004.8828125,4.8828125,-133.7890625,-0.05009094953223726,0.03420845333908886,-0.010995574287564277,-1765,-2315,-2390,3820,312,100690
12:14:24.440,4216,1009.765625,-4.8828125,-139.6484375,-0.07574728953655392,0.0476474885794452,-0.023212879051524585,-1763,-2315,-2393,3820,312,100690
12:14:24.461,4217,1005.859375,-0.0,-154.296875,-0.08918632477691024,0.020769418098732523,-0.023212879051524585,-1759,-2312,-2392,3820,312,100690
12:14:24.470,4218,1011.71875,20.5078125,-156.25,-0.12095131716320705,0.03298672286269283,-0.019547687622336492,-1761,-2311,-2391,3820,312,100690
12:14:24.491,4219,1015.625,31.25,-151.3671875,-0.1038470904936626,0.039095375244672985,-0.014660765716752368,-1767,-2313,-2391,3820,312,100690
12:14:24.532,4220,1017.578125,34.1796875,-153.3203125,-0.06108652381980154,0.04520402762665313,-0.025656340004316647,-1760,-2312,-2381,3820,312,100690
12:14:24.552,4221,1008.7890625,28.3203125,-155.2734375,-0.0476474885794452,0.03543018381548489,-0.03054326190990077,-1765,-2311,-2387,3820,312,100690
12:14:24.563,4222,1006.8359375,17.578125,-152.34375,-0.04153883619746505,0.009773843811168246,-0.0024434609527920616,-1765,-2315,-2383,3820,312,100690
12:14:24.583,4223,1008.7890625,28.3203125,-158.203125,-0.03543018381548489,0.01832595714594046,-0.012217304763960306,-1762,-2311,-2392,3820,312,100690
12:14:24.604,4224,1027.34375,26.3671875,-149.4140625,-0.04520402762665313,0.0317649923862968,-0.007330382858376184,-1755,-2308,-2391,3820,312,100690
12:14:24.624,4225,1016.6015625,24.4140625,-157.2265625,-0.004886921905584123,0.025656340004316647,-0.019547687622336492,-1763,-2306,-2385,3820,312,100690
12:14:24.634,4226,1010.7421875,10.7421875,-154.296875,-0.01710422666954443,0.013439035240356337,-0.0158824961931484,-1765,-2304,-2391,3820,312,100690
12:14:24.654,4227,1011.71875,19.53125,-156.25,0.006108652381980153,0.0158824961931484,-0.014660765716752368,-1768,-2307,-2393,3820,312,100690
12:14:24.674,4228,1017.578125,29.296875,-136.71875,-0.04031710572106901,0.023212879051524585,-0.012217304763960306,-1763,-2311,-2381,3820,312,100690
12:14:24.695,4229,1008.7890625,29.296875,-141.6015625,-0.020769418098732523,0.0158824961931484,-0.009773843811168246,-1765,-2306,-2380,3820,312,100690
12:14:24.726,4230,1006.8359375,30.2734375,-148.4375,-0.013439035240356337,-0.008552113334772215,0.0,-1761,-2311,-2396,3820,312,100690
12:14:24.746,4231,1012.6953125,13.671875,-144.53125,0.01832595714594046,-0.01832595714594046,-0.007330382858376184,-1749,-2303,-2394,3820,312,100690
12:14:24.767,4232,1009.765625,20.5078125,-157.2265625,0.04031710572106901,0.0,-0.0012217304763960308,-1767,-2309,-2390,3820,312,100690
12:14:24.788,4233,1018.5546875,9.765625,-140.625,-0.006108652381980153,0.01710422666954443,-0.010995574287564277,-1763,-2308,-2404,3820,312,100690
12:14:24.798,4234,1019.53125,14.6484375,-147.4609375,-0.013439035240356337,-0.008552113334772215,-0.004886921905584123,-1765,-2310,-2386,3820,312,100690
12:14:24.819,4235,1020.5078125,20.5078125,-151.3671875,0.0024434609527920616,-0.024434609527920613,-0.003665191429188092,-1750,-2304,-2387,3820,312,100690
12:14:24.839,4236,1017.578125,15.625,-147.4609375,0.0024434609527920616,-0.01710422666954443,0.0012217304763960308,-1762,-2302,-2395,3820,312,100690
12:14:24.860,4237,1006.8359375,16.6015625,-144.53125,0.007330382858376184,-0.0024434609527920616,-0.003665191429188092,-1764,-2312,-2396,3820,312,100690
12:14:24.870,4238,1002.9296875,9.765625,-144.53125,0.004886921905584123,-0.003665191429188092,0.0,-1764,-2304,-2404,3820,312,100690
12:14:24.890,4239,1011.71875,13.671875,-137.6953125,0.003665191429188092,-0.02809980095710871,0.004886921905584123,-1768,-2302,-2400,3820,312,100690
12:14:24.911,4240,1005.859375,22.4609375,-146.484375,-0.020769418098732523,-0.013439035240356337,0.0158824961931484,-1763,-2310,-2398,3820,312,100690
12:14:24.952,4241,1006.8359375,33.203125,-139.6484375,-0.03298672286269283,-0.0012217304763960308,0.0024434609527920616,-1765,-2304,-2385,3820,312,100690
12:14:24.962,4242,1006.8359375,24.4140625,-143.5546875,-0.007330382858376184,-0.014660765716752368,-0.0024434609527920616,-1766,-2305,-2402,3820,312,100690
12:14:24.983,4243,1003.90625,17.578125,-150.390625,-0.0012217304763960308,-0.024434609527920613,0.013439035240356337,-1766,-2306,-2382,3820,312,100690
12:14:25.3,4244,1007.8125,18.5546875,-145.5078125,0.007330382858376184,-0.0158824961931484,0.019547687622336492,-1770,-2304,-2380,3820,312,100690
12:14:25.24,4245,1005.859375,13.671875,-142.578125,-0.0012217304763960308,-0.019547687622336492,0.024434609527920613,-1750,-2302,-2392,3820,312,100690
12:14:25.34,4246,1015.625,19.53125,-147.4609375,0.023212879051524585,-0.03298672286269283,0.013439035240356337,-1771,-2308,-2393,3820,312,100690
12:14:25.54,4247,1020.5078125,19.53125,-148.4375,-0.013439035240356337,-0.019547687622336492,0.01832595714594046,-1768,-2313,-2388,3820,312,100690
12:14:25.94,4248,1010.7421875,22.4609375,-144.53125,-0.0024434609527920616,-0.0012217304763960308,0.01832595714594046,-1768,-2315,-2390,3820,312,100690
12:14:25.115,4249,1008.7890625,16.6015625,-153.3203125,-0.020769418098732523,-0.012217304763960306,0.0012217304763960308,-1767,-2307,-2394,3820,312,100690
12:14:25.125,4250,1007.8125,13.671875,-151.3671875,-0.0012217304763960308,-0.0024434609527920616,0.0,-1769,-2315,-2391,3820,312,100690
12:14:25.146,4251,1009.765625,12.6953125,-144.53125,-0.003665191429188092,-0.013439035240356337,-0.003665191429188092,-1766,-2314,-2398,3820,312,100690
12:14:25.166,4252,1007.8125,15.625,-148.4375,0.012217304763960306,-0.010995574287564277,0.003665191429188092,-1757,-2306,-2392,3814,312,100688
12:14:25.186,4253,1016.6015625,14.6484375,-155.2734375,0.0012217304763960308,0.0012217304763960308,0.0,-1765,-2312,-2386,3814,312,100688
12:14:25.207,4254,1009.765625,14.6484375,-149.4140625,-0.003665191429188092,0.007330382858376184,-0.019547687622336492,-1764,-2312,-2381,3814,312,100688
12:14:25.217,4255,1011.71875,16.6015625,-149.4140625,-0.008552113334772215,-0.020769418098732523,-0.007330382858376184,-1765,-2307,-2385,3814,312,100688
12:14:25.237,4256,1005.859375,18.5546875,-139.6484375,0.008552113334772215,0.0,-0.004886921905584123,-1769,-2311,-2389,3814,312,100688
12:14:25.258,4257,1007.8125,13.671875,-146.484375,0.007330382858376184,0.003665191429188092,-0.019547687622336492,-1768,-2312,-2388,3814,312,100688
12:14:25.278,4258,1008.7890625,15.625,-143.5546875,0.007330382858376184,-0.024434609527920613,-0.021991148575128554,-1769,-2311,-2376,3814,312,100688
12:14:25.289,4259,1021.484375,14.6484375,-148.4375,0.01832595714594046,-0.019547687622336492,-0.01832595714594046,-1763,-2311,-2386,3814,312,100688
12:14:25.309,4260,1009.765625,7.8125,-145.5078125,-0.023212879051524585,-0.0158824961931484,-0.03054326190990077,-1769,-2311,-2392,3814,312,100688
12:14:25.329,4261,1011.71875,16.6015625,-151.3671875,-0.024434609527920613,-0.013439035240356337,-0.01832595714594046,-1772,-2312,-2395,3814,312,100688
12:14:25.370,4262,1028.3203125,13.671875,-153.3203125,-0.0158824961931484,-0.019547687622336492,-0.021991148575128554,-1766,-2311,-2391,3814,312,100688
12:14:25.380,4263,1024.4140625,-2.9296875,-167.96875,-0.019547687622336492,-0.048869219055841226,-0.0317649923862968,-1761,-2312,-2387,3814,312,100688
12:14:25.400,4264,1035.15625,-15.625,-173.828125,-0.09162978572970232,-0.1343903524035634,-0.01832595714594046,-1768,-2315,-2388,3814,312,100688
12:14:25.420,4265,1041.9921875,-48.828125,-210.9375,-0.2101376419401173,-0.21991148575128555,0.0,-1770,-2307,-2386,3814,312,100688
12:14:25.441,4266,1050.78125,-81.0546875,-220.703125,-0.0830776723949301,-0.17592918860102844,-0.023212879051524585,-1769,-2310,-2385,3814,312,100688
12:14:25.461,4267,1051.7578125,-14.6484375,-223.6328125,0.058643062867009474,-0.13805554383275148,-0.13683381335635544,-1763,-2309,-2382,3814,312,100688
12:14:25.471,4268,1055.6640625,93.75,-188.4765625,0.3640756819660172,-0.1307251609743753,-0.24923301718479027,-1755,-2300,-2380,3814,312,100688
12:14:25.512,4269,995.1171875,122.0703125,-177.734375,0.5693264020005504,-0.07941248096574201,-0.3445279943436807,-1761,-2305,-2389,3814,312,100688
12:14:25.532,4270,998.046875,71.2890625,-166.015625,0.4691445029360758,-0.09651670763528641,-0.4043927876870862,-1765,-2304,-2388,3814,312,100688
12:14:25.553,4271,1010.7421875,144.53125,-153.3203125,0.2907718533822553,-0.197920337176157,-0.5057964172279568,-1763,-2295,-2376,3814,312,100688
12:14:25.563,4272,1029.296875,219.7265625,-162.109375,0.29932396671702755,-0.24434609527920617,-0.5864306286700948,-1767,-2306,-2384,3814,312,100688
12:14:25.583,4273,1023.4375,241.2109375,-200.1953125,0.3469714552964728,-0.2211332162276816,-0.6976081020221336,-1752,-2291,-2374,3814,312,100688
12:14:25.604,4274,1011.71875,242.1875,-283.203125,0.5021312257987687,-0.2944370448114434,-0.7867944267990439,-1755,-2294,-2379,3814,312,100688
12:14:25.624,4275,1017.578125,260.7421875,-291.015625,0.6255260039147678,-0.34330626386728463,-0.8600982553828056,-1761,-2284,-2379,3814,312,100688
12:14:25.644,4276,1041.015625,278.3203125,-286.1328125,0.8295549934729048,-0.37629298672997746,-0.9334020839665675,-1758,-2282,-2381,3814,312,100688
12:14:25.655,4277,1048.828125,304.6875,-311.5234375,1.069014166846527,-0.3872885610175418,-0.9480628496833199,-1751,-2280,-2374,3814,312,100688
12:14:25.675,4278,1071.2890625,386.71875,-323.2421875,1.3891075516622868,-0.41905355340383854,-1.0372491744602301,-1759,-2272,-2375,3814,312,100688
12:14:25.695,4279,1061.5234375,403.3203125,-347.65625,1.4477506145292964,-0.5962044724812631,-1.2131783630612585,-1749,-2267,-2382,3814,312,100688
12:14:25.716,4280,1066.40625,418.9453125,-398.4375,1.5198327126366624,-0.7147123286916779,-1.4208725440485839,-1737,-2257,-2375,3814,312,100688
12:14:25.736,4281,1048.828125,430.6640625,-366.2109375,1.3891075516622868,-0.8246680715673209,-1.6823228659973344,-1753,-2259,-2370,3814,312,100688
12:14:25.788,4282,1038.0859375,561.5234375,-358.3984375,1.3145819926021292,-0.9346238144429636,-2.0195204774826387,-1754,-2244,-2364,3814,312,100688
12:14:25.809,4283,1085.9375,573.2421875,-388.671875,1.3267992973660896,-1.0262536001726659,-2.2809707994313895,-1759,-2230,-2363,3814,312,100688
12:14:25.829,4284,1023.4375,519.53125,-389.6484375,1.1789699097221698,-1.1557570306706453,-2.4336871089808936,-1757,-2217,-2347,3814,312,100688
12:14:25.860,4285,1021.484375,513.671875,-367.1875,1.0763445497049031,-1.225395667825219,-2.6267205242514664,-1761,-2204,-2341,3814,312,100688
12:14:25.880,4286,1005.859375,616.2109375,-364.2578125,1.0128145649323095,-1.3622294811815745,-2.845410279526356,-1762,-2190,-2333,3814,312,100688
12:14:25.901,4287,963.8671875,608.3984375,-395.5078125,1.0238101392198737,-1.4440854231001083,-2.963918135736771,-1759,-2167,-2316,3814,312,100688
12:14:25.911,4288,921.875,563.4765625,-419.921875,0.9676105373056564,-1.470963493580821,-3.0616565738484534,-1769,-2154,-2307,3814,312,100688
12:14:25.931,4289,923.828125,544.921875,-413.0859375,0.8906415172927065,-1.512502329778286,-3.089756374805562,-1782,-2134,-2301,3814,312,100688
12:14:25.952,4290,884.765625,552.734375,-408.203125,0.7318165553612224,-1.464854841198841,-3.0225611986037797,-1793,-2113,-2272,3814,312,100688
12:14:25.972,4291,821.2890625,510.7421875,-427.734375,0.6572909963010646,-1.393994473567871,-2.8845056547710284,-1787,-2102,-2266,3814,312,100688
12:14:25.992,4292,786.1328125,494.140625,-462.890625,0.6670648401122328,-1.2864821916450204,-2.7989845214233062,-1815,-2082,-2255,3814,312,100688
12:14:26.3,4293,722.65625,522.4609375,-491.2109375,0.6377433086787281,-1.2180652849668427,-2.662150708066951,-1832,-2058,-2236,3814,312,100688
12:14:26.23,4294,618.1640625,529.296875,-551.7578125,0.6059783162924314,-1.2205087459196347,-2.539977660427348,-1834,-2051,-2239,3814,312,100688
12:14:26.44,4295,593.75,543.9453125,-529.296875,0.6633996486830448,-1.1679743354346053,-2.4410174918392693,-1851,-2048,-2215,3814,312,100688
12:14:26.64,4296,560.546875,567.3828125,-535.15625,0.7147123286916779,-1.0751228192285072,-2.343279053727587,-1881,-2028,-2212,3814,312,100688
12:14:26.84,4297,531.25,597.65625,-594.7265625,0.8002334620394002,-0.9395107363485476,-2.2113321622768156,-1884,-2027,-2193,3814,312,100688
12:14:26.95,4298,487.3046875,620.1171875,-619.140625,0.8161159582325487,-0.8674286382411819,-2.0793852708260445,-1892,-2018,-2187,3814,312,100688
12:14:26.115,4299,406.25,606.4453125,-613.28125,0.756251164889143,-0.791681348704628,-1.947438379375273,-1910,-2011,-2184,3814,312,100688
12:14:26.136,4300,374.0234375,561.5234375,-574.21875,0.7171557896444701,-0.6475171524898963,-1.830152253641254,-1915,-2007,-2182,3814,312,100688
12:14:26.156,4301,353.515625,578.125,-586.9140625,0.7611380867947273,-0.5180137219919171,-1.6835445964737306,-1921,-2003,-2172,3814,312,100688
12:14:26.207,4302,335.9375,603.515625,-583.984375,0.8124507668033605,-0.3677408733952052,-1.5662584707397116,-1942,-2005,-2169,3832,312,100692
12:14:26.228,4303,327.1484375,604.4921875,-629.8828125,0.8698720991939739,-0.3029891581462157,-1.497841564061534,-1944,-2006,-2177,3832,312,100692
12:14:26.248,4304,326.171875,609.375,-689.453125,1.106887811614804,-0.3029891581462157,-1.4110987002374156,-1954,-2004,-2156,3832,312,100692
12:14:26.259,4305,312.5,620.1171875,-742.1875,1.145983186859477,-0.3139847324337799,-1.3255775668896934,-1967,-2006,-2148,3832,312,100692
12:14:26.279,4306,289.0625,589.84375,-802.734375,0.8906415172927065,-0.2748893571891069,-1.2791518087866443,-1966,-2010,-2155,3832,312,100692
12:14:26.300,4307,258.7890625,566.40625,-814.453125,0.8381071068076771,-0.3445279943436807,-1.27426488688106,-1974,-2009,-2148,3832,312,100692
12:14:26.320,4308,232.421875,605.46875,-795.8984375,0.9663888068292604,-0.39706240482871,-1.2986994964089809,-1964,-2003,-2145,3832,312,100692
12:14:26.330,4309,211.9140625,603.515625,-809.5703125,0.9786061115932208,-0.41416663149825445,-1.3316862192716736,-1987,-2014,-2141,3832,312,100692
12:14:26.351,4310,166.015625,531.25,-802.734375,0.9187413182498152,-0.3335324200561164,-1.3267992973660896,-1997,-2021,-2136,3832,312,100692
12:14:26.371,4311,141.6015625,539.0625,-789.0625,1.0592403230353586,-0.28344147052387914,-1.3292427583188815,-2004,-2019,-2132,3832,312,100692
12:14:26.392,4312,117.1875,531.25,-831.0546875,1.2241739373488227,-0.2932153143350474,-1.347568715464822,-2007,-2026,-2126,3832,312,100692
12:14:26.413,4313,68.359375,518.5546875,-840.8203125,1.2290608592544068,-0.21258110289290938,-1.3658946726107624,-2014,-2033,-2115,3832,312,100692
12:14:26.423,4314,105.46875,515.625,-833.0078125,1.1533135697178531,-0.18570303241219668,-1.3463469849884258,-2027,-2040,-2123,3832,312,100692
12:14:26.443,4315,122.0703125,518.5546875,-863.28125,0.9468411192069238,-0.2883283924294633,-1.2705996954518721,-2021,-2045,-2114,3832,312,100692
12:14:26.464,4316,76.171875,213.8671875,-788.0859375,0.49846603436958054,-0.37629298672997746,-1.2351695116363872,-2035,-2052,-2105,3832,312,100692
12:14:26.484,4317,47.8515625,-32.2265625,-562.5,0.5913175505756788,-0.25656340004316647,-0.994488607786369,-2039,-2050,-2102,3832,312,100692
12:14:26.505,4318,78.125,-98.6328125,-483.3984375,0.40072759625789806,-0.18325957145940464,-0.6414085001079162,-2044,-2048,-2089,3832,312,100692
12:14:26.515,4319,121.09375,-232.421875,-583.984375,0.03665191429188092,-0.020769418098732523,-0.21991148575128555,-2036,-2047,-2105,3832,312,100692
12:14:26.535,4320,150.390625,-226.5625,-740.234375,-0.13316862192716736,-0.03787364476827696,0.0635299847725936,-2048,-2054,-2096,3832,312,100692
12:14:26.555,4321,140.625,-156.25,-833.0078125,-0.49113565151120436,-0.06108652381980154,0.24923301718479027,-2046,-2048,-2091,3832,312,100692
12:14:26.576,4322,102.5390625,-54.6875,-847.65625,-0.6866125277345693,-0.023212879051524585,0.4410447019789671,-2036,-2045,-2104,3832,312,100692
12:14:26.596,4323,89.84375,128.90625,-851.5625,-0.5766567848589266,0.0671951762017817,0.668286570588629,-2043,-2045,-2103,3832,312,100692
12:14:26.606,4324,114.2578125,283.203125,-770.5078125,-0.38606683054114566,0.2919935838586513,0.9724974592112404,-2041,-2038,-2101,3832,312,100692
12:14:26.627,4325,178.7109375,266.6015625,-755.859375,-0.3017674276698196,0.514348530562729,1.2082914411556744,-2037,-2040,-2104,3832,312,100692
12:14:26.647,4326,183.59375,242.1875,-804.6875,-0.4410447019789671,0.5522221753310059,1.3695598640399507,-2030,-2041,-2115,3832,312,100692
12:14:26.667,4327,195.3125,208.0078125,-926.7578125,-0.597426202957659,0.4202752838802346,1.4685200326280292,-2017,-2043,-2117,3832,312,100692
12:14:26.688,4328,141.6015625,266.6015625,-825.1953125,-0.9053022830094588,0.2919935838586513,1.49906329453793,-2018,-2042,-2112,3832,312,100692
12:14:26.698,4329,200.1953125,352.5390625,-739.2578125,-1.2168435544904468,0.16982053621904827,1.4966198335851377,-2002,-2036,-2123,3832,312,100692
12:14:26.719,4330,204.1015625,478.515625,-735.3515625,-1.2095131716320704,0.09773843811168245,1.5662584707397116,-2001,-2036,-2132,3832,312,100692
12:14:26.740,4331,216.796875,532.2265625,-726.5625,-1.0800097411340912,0.08918632477691024,1.5821409669328599,-2003,-2031,-2131,3832,312,100692
12:14:26.761,4332,231.4453125,612.3046875,-727.5390625,-1.0580185925589627,0.08063421144213802,1.5063936773963058,-1986,-2029,-2135,3832,312,100692
12:14:26.772,4333,259.765625,618.1640625,-786.1328125,-1.0604620535117548,0.07941248096574201,1.3634512116579702,-1963,-2015,-2138,3832,312,100692
12:14:26.793,4334,246.09375,694.3359375,-798.828125,-0.9297368925373793,-0.020769418098732523,1.2657127735462879,-1980,-2018,-2149,3832,312,100692
12:14:26.813,4335,215.8203125,828.125,-811.5234375,-1.0201449477906857,-0.07819075048934597,1.2095131716320704,-1974,-2017,-2148,3832,312,100692
12:14:26.834,4336,201.171875,957.03125,-826.171875,-0.9334020839665675,-0.0867428638241182,1.0971139678036357,-1961,-2013,-2150,3832,312,100692
12:14:26.844,4337,148.4375,1023.4375,-828.125,-0.7880161572754398,-0.14172073526193957,0.8674286382411819,-1966,-2014,-2147,3832,312,100692
12:14:26.864,4338,125.9765625,1023.4375,-864.2578125,-0.3738495257771854,-0.14049900478554353,0.7391469382195985,-1969,-2009,-2157,3832,312,100692
12:14:26.976,4339,114.2578125,972.65625,-822.265625,-0.14049900478554353,-0.0671951762017817,0.5729915934297385,-1967,-2008,-2147,3832,312,100692
12:14:26.997,4340,131.8359375,849.609375,-816.40625,-0.08796459430051422,-0.08429940287132612,0.46303585055409563,-1963,-2009,-2152,3832,312,100692
12:14:27.7,4341,152.34375,833.0078125,-792.96875,0.05009094953223726,-0.04153883619746505,0.37018433434799736,-1967,-2008,-2151,3832,312,100692
12:14:27.28,4342,132.8125,802.734375,-834.9609375,0.03543018381548489,-0.024434609527920613,0.3066543495754037,-1964,-2012,-2153,3832,312,100692
12:14:27.49,4343,166.015625,741.2109375,-812.5,0.007330382858376184,-0.051312680008633295,0.2309070600388498,-1958,-2012,-2162,3832,312,100692
12:14:27.69,4344,173.828125,717.7734375,-795.8984375,0.01832595714594046,-0.07574728953655392,0.17470745812463243,-1958,-2019,-2155,3832,312,100692
12:14:27.89,4345,183.59375,684.5703125,-770.5078125,0.01832595714594046,-0.06108652381980154,0.11850785621041499,-1959,-2019,-2151,3832,312,100692
12:14:27.100,4346,184.5703125,660.15625,-766.6015625,0.010995574287564277,-0.04520402762665313,0.08185594191853407,-1949,-2017,-2151,3832,312,100692
12:14:27.120,4347,211.9140625,629.8828125,-755.859375,0.007330382858376184,-0.06230825429619757,0.04642575810304917,-1946,-2010,-2163,3832,312,100692
12:14:27.140,4348,236.328125,598.6328125,-746.09375,-0.03787364476827696,-0.03420845333908886,0.01710422666954443,-1963,-2014,-2145,3832,312,100692
12:14:27.161,4349,224.609375,554.6875,-745.1171875,-0.09651670763528641,-0.07208209810736582,0.04520402762665313,-1956,-2017,-2154,3832,312,100692
12:14:27.171,4350,243.1640625,522.4609375,-765.625,-0.14049900478554353,-0.07330382858376185,0.09162978572970232,-1951,-2012,-2157,3832,312,100692
12:14:27.192,4351,265.625,487.3046875,-763.671875,-0.17592918860102844,-0.11606439525762292,0.12461650859239513,-1963,-2014,-2156,3832,312,100692
12:14:27.213,4352,298.828125,471.6796875,-731.4453125,-0.2211332162276816,-0.19669860669976097,0.16493361431346415,-1965,-2010,-2151,3820,312,100678
12:14:27.233,4353,306.640625,416.015625,-714.84375,-0.2858849314766712,-0.23945917337362205,0.2541199390903744,-1964,-2012,-2165,3820,312,100678
12:14:27.254,4354,325.1953125,413.0859375,-697.265625,-0.37140606482439337,-0.23945917337362205,0.37507125625358145,-1963,-2009,-2149,3820,312,100678
12:14:27.264,4355,282.2265625,416.015625,-738.28125,-0.5424483315198376,-0.24556782575560218,0.5290092962794813,-1964,-2010,-2150,3820,312,100678
12:14:27.285,4356,267.578125,427.734375,-784.1796875,-0.6805038753525892,-0.2907718533822553,0.6670648401122328,-1962,-2012,-2171,3820,312,100678
12:14:27.305,4357,254.8828125,464.84375,-800.78125,-0.8002334620394002,-0.4166100924510465,0.7794640439406676,-1956,-2003,-2158,3820,312,100678
12:14:27.326,4358,262.6953125,557.6171875,-795.8984375,-0.8185594191853407,-0.5400048705670456,0.8710938296703699,-1965,-2000,-2154,3820,312,100678
12:14:27.336,4359,255.859375,633.7890625,-789.0625,-0.8845328649107264,-0.6267477343911638,0.9871582249279928,-1963,-2006,-2171,3820,312,100678
12:14:27.397,4360,247.0703125,709.9609375,-782.2265625,-0.9260717011081913,-0.6560692658246685,1.03114052207825,-1961,-2001,-2160,3820,312,100678
12:14:27.417,4361,216.796875,753.90625,-802.734375,-0.9065240134858548,-0.7257079029792424,1.0641272449409427,-1963,-1995,-2157,3820,312,100678
12:14:27.427,4362,206.0546875,776.3671875,-779.296875,-0.8698720991939739,-0.8222246106145287,1.0775662801812993,-1963,-1990,-2153,3820,312,100678
12:14:27.448,4363,185.546875,811.5234375,-737.3046875,-0.8686503687175778,-0.8710938296703699,1.0409143658894182,-1968,-1991,-2157,3820,312,100678
12:14:27.468,4364,186.5234375,832.03125,-713.8671875,-0.8210028801381327,-0.8808676734815382,1.03114052207825,-1966,-1990,-2151,3820,312,100678
12:14:27.489,4365,176.7578125,841.796875,-686.5234375,-0.753807703936351,-0.8808676734815382,0.9993755296919531,-1973,-1990,-2159,3820,312,100678
12:14:27.499,4366,179.6875,838.8671875,-661.1328125,-0.6572909963010646,-0.8588765249064098,0.9431759277777358,-1975,-1988,-2166,3820,312,100678
12:14:27.520,4367,178.7109375,844.7265625,-626.953125,-0.4972443038931845,-0.8307767239493008,0.8698720991939739,-1980,-1994,-2152,3820,312,100678
12:14:27.612,4368,184.5703125,841.796875,-588.8671875,-0.41416663149825445,-0.7391469382195985,0.7977900010866079,-1963,-1989,-2155,3820,312,100678
12:14:27.632,4369,208.984375,855.46875,-584.9609375,-0.43615778007338296,-0.670730031541421,0.7281513639320344,-1980,-1991,-2161,3820,312,100678
12:14:27.653,4370,204.1015625,927.734375,-598.6328125,-0.4422664324553632,-0.675616953447005,0.6633996486830448,-1984,-1985,-2149,3820,312,100678
12:14:27.663,4371,172.8515625,919.921875,-651.3671875,-0.5021312257987687,-0.6401867696315202,0.5632177496185702,-1984,-1985,-2155,3820,312,100678
12:14:27.683,4372,193.359375,926.7578125,-709.9609375,-0.48747046008201633,-0.6414085001079162,0.40805797911627434,-1988,-1988,-2156,3820,312,100678
12:14:27.703,4373,210.9375,983.3984375,-720.703125,-0.3262020371977402,-0.6462954220135002,0.24556782575560218,-1987,-1986,-2144,3820,312,100678
12:14:27.724,4374,213.8671875,1040.0390625,-677.734375,-0.2223549467040776,-0.7171557896444701,0.023212879051524585,-1991,-1983,-2154,3820,312,100678
12:14:27.745,4375,213.8671875,1012.6953125,-653.3203125,-0.14172073526193957,-0.5998696639104512,-0.1710422666954443,-2005,-1981,-2150,3820,312,100678
12:14:27.755,4376,237.3046875,1000.0,-631.8359375,0.01832595714594046,-0.5448917924726296,-0.3885102914939378,-2003,-1979,-2153,3820,312,100678
12:14:27.775,4377,259.765625,999.0234375,-617.1875,0.19914206765255302,-0.5021312257987687,-0.7049384848805097,-2007,-1984,-2146,3820,312,100678
12:14:27.796,4378,247.0703125,971.6796875,-567.3828125,0.3897320219703338,-0.4642575810304917,-0.908967474438647,-1999,-1972,-2138,3820,312,100678
12:14:27.816,4379,273.4375,927.734375,-566.40625,0.5033529562751646,-0.33719761148530447,-1.0531316706533784,-2022,-1976,-2137,3820,312,100678
12:14:27.837,4380,251.953125,863.28125,-653.3203125,0.41172317054546237,-0.2724458962363148,-1.1655308744818131,-2030,-1980,-2142,3820,312,100678
12:14:27.847,4381,178.7109375,676.7578125,-710.9375,0.2150245638457014,-0.35918876006043304,-1.1863002925805461,-2032,-1979,-2138,3820,312,100678
12:14:27.868,4382,100.5859375,433.59375,-586.9140625,0.33108895910332437,-0.39217548292312593,-0.9786061115932208,-2041,-1976,-2130,3820,312,100678
12:14:27.888,4383,64.453125,343.75,-542.96875,0.31154127148098787,-0.4569271981721155,-0.7770205829878756,-2046,-1982,-2141,3820,312,100678
12:14:27.909,4384,176.7578125,317.3828125,-552.734375,0.32498030672134415,-0.2895501229058593,-0.5412266010434416,-2048,-1978,-2141,3820,312,100678
12:14:27.919,4385,207.03125,279.296875,-507.8125,0.34330626386728463,-0.20036379812894903,-0.35185837720205687,-2044,-1974,-2119,3820,312,100678
12:14:27.940,4386,177.734375,238.28125,-552.734375,0.38484510006474965,-0.08918632477691024,-0.12217304763960309,-2064,-1984,-2135,3820,312,100678
12:14:27.960,4387,161.1328125,222.65625,-622.0703125,0.3127630019573839,-0.02809980095710871,0.08552113334772216,-2064,-1988,-2121,3820,312,100678
12:14:27.981,4388,160.15625,312.5,-653.3203125,0.14172073526193957,-0.04031710572106901,0.278554548618295,-2061,-1986,-2131,3820,312,100678
12:14:28.1,4389,179.6875,433.59375,-663.0859375,-0.03054326190990077,0.025656340004316647,0.43493604959698695,-2060,-1988,-2119,3820,312,100678
12:14:28.12,4390,186.5234375,566.40625,-697.265625,-0.15760323145508798,0.0830776723949301,0.5338962181850655,-2053,-1989,-2125,3820,312,100678
12:14:28.32,4391,176.7578125,613.28125,-703.125,-0.22479840765686968,0.21991148575128555,0.6291911953439558,-2057,-1991,-2126,3820,312,100678
12:14:28.53,4392,168.9453125,601.5625,-660.15625,-0.2419026343264141,0.2944370448114434,0.7098254067860938,-2047,-1989,-2131,3820,312,100678
12:14:28.73,4393,184.5703125,564.453125,-621.09375,-0.31642819338657197,0.3909537524467298,0.8515461420480335,-2056,-1991,-2122,3820,312,100678
12:14:28.83,4394,204.1015625,557.6171875,-639.6484375,-0.2944370448114434,0.4398229715025711,0.9724974592112404,-2045,-1989,-2124,3820,312,100678
12:14:28.103,4395,208.984375,598.6328125,-642.578125,-0.24923301718479027,0.41783182292744253,0.9517280411125081,-2032,-1989,-2130,3820,312,100678
12:14:28.123,4396,202.1484375,608.3984375,-563.4765625,-0.2528982086139784,0.475253155318056,0.911410935391439,-2028,-1994,-2139,3820,312,100678
12:14:28.143,4397,251.953125,606.4453125,-539.0625,-0.21746802479849348,0.5424483315198376,1.0030407211211414,-2023,-1991,-2153,3820,312,100678
12:14:28.164,4398,250.0,707.03125,-596.6796875,-0.09773843811168245,0.5766567848589266,1.0164797563614976,-2014,-1993,-2138,3820,312,100678
12:14:28.174,4399,228.515625,748.046875,-603.515625,-0.029321531433504737,0.6328563867731439,0.8258898020437169,-2012,-1995,-2144,3820,312,100678
12:14:28.194,4400,257.8125,761.71875,-616.2109375,0.06230825429619757,0.6450736915371041,0.6524040743954804,-1996,-1996,-2147,3820,312,100678
12:14:28.215,4401,267.578125,827.1484375,-668.9453125,0.09407324668249437,0.6365215782023321,0.5656612105713622,-1995,-1999,-2152,3820,312,100678
12:14:28.235,4402,262.6953125,897.4609375,-726.5625,0.13683381335635544,0.6365215782023321,0.39461894387591795,-1986,-2000,-2156,3814,312,100689
12:14:28.256,4403,267.578125,913.0859375,-674.8046875,0.1478293876439197,0.6023131248632432,0.2235766771804736,-1959,-1997,-2153,3814,312,100689
12:14:28.266,4404,307.6171875,947.265625,-709.9609375,0.2871066619530672,0.6133086991508074,0.10995574287564278,-1972,-2004,-2157,3814,312,100689
12:14:28.286,4405,284.1796875,988.28125,-771.484375,0.38362336958835364,0.5351179486614615,0.003665191429188092,-1975,-2004,-2154,3814,312,100689
12:14:28.307,4406,311.5234375,961.9140625,-756.8359375,0.2822197400474831,0.477696616270848,-0.13316862192716736,-1961,-2005,-2149,3814,312,100689
12:14:28.327,4407,304.6875,876.953125,-753.90625,0.11362093430483088,0.395840674352314,-0.18325957145940464,-1964,-2010,-2161,3814,312,100689
12:14:28.348,4408,308.59375,833.984375,-761.71875,0.2076941809873252,0.41783182292744253,-0.16982053621904827,-1961,-2011,-2154,3814,312,100689
12:14:28.379,4409,294.921875,806.640625,-773.4375,0.1551597705022959,0.3384193419617005,-0.22724186860966175,-1959,-2010,-2152,3814,312,100689
12:14:28.399,4410,313.4765625,747.0703125,-729.4921875,0.11728612573401895,0.2956587752878394,-0.2528982086139784,-1956,-2010,-2166,3814,312,100689
12:14:28.420,4411,336.9140625,733.3984375,-682.6171875,0.10018189906447451,0.24068090385001806,-0.2528982086139784,-1957,-2010,-2162,3814,312,100689
12:14:28.430,4412,329.1015625,682.6171875,-672.8515625,0.10140362954087055,0.2076941809873252,-0.20158552860534507,-1952,-2011,-2170,3814,312,100689
12:14:28.451,4413,341.796875,612.3046875,-629.8828125,0.08429940287132612,0.2223549467040776,-0.19303341527057283,-1945,-2007,-2162,3814,312,100689
12:14:28.472,4414,361.328125,595.703125,-601.5625,0.019547687622336492,0.24923301718479027,-0.1551597705022959,-1947,-2010,-2157,3814,312,100689
