Timestamp,SampleNr,AccX [mg],AccY [mg],AccZ [mg],GyrX [rad/s],GyrY [rad/s],GyrZ [rad/s],MagX [mGs],MagY [mGs],-MagZ [mGs],Battery [mV],Temperature [0.1C],Pressure[Pa]
12:14:12.220,4289,133.7890625,156.25,-997.0703125,0.0158824961931484,0.023212879051524585,0.0,-1855,-481,-15,4124,310,100603
12:14:12.230,4290,129.8828125,155.2734375,-997.0703125,0.019547687622336492,0.01710422666954443,-0.006108652381980153,-1857,-478,-13,4124,310,100603
12:14:12.250,4291,131.8359375,146.484375,-994.140625,0.0158824961931484,0.012217304763960306,0.0,-1854,-476,-18,4124,310,100603
12:14:12.271,4292,132.8125,152.34375,-990.234375,-0.013439035240356337,0.019547687622336492,0.007330382858376184,-1857,-480,-12,4124,310,100603
12:14:12.291,4293,132.8125,150.390625,-991.2109375,-0.0317649923862968,0.012217304763960306,-0.004886921905584123,-1851,-476,-19,4124,310,100603
12:14:12.302,4294,129.8828125,159.1796875,-997.0703125,-0.021991148575128554,0.008552113334772215,-0.019547687622336492,-1848,-475,-18,4124,310,100603
12:14:12.322,4295,133.7890625,161.1328125,-1013.671875,-0.004886921905584123,0.0012217304763960308,-0.03420845333908886,-1854,-480,-19,4124,310,100603
12:14:12.342,4296,134.765625,162.109375,-1025.390625,0.01832595714594046,0.004886921905584123,-0.03054326190990077,-1854,-473,-15,4124,310,100603
12:14:12.363,4297,130.859375,159.1796875,-1019.53125,0.03787364476827696,0.014660765716752368,-0.01832595714594046,-1858,-476,-9,4124,310,100603
12:14:12.383,4298,127.9296875,147.4609375,-1012.6953125,0.020769418098732523,0.0158824961931484,-0.010995574287564277,-1858,-474,-18,4124,310,100603
12:14:12.393,4299,127.9296875,150.390625,-1006.8359375,-0.024434609527920613,0.03054326190990077,0.0,-1857,-480,-15,4124,310,100603
12:14:12.414,4300,137.6953125,162.109375,-1000.9765625,-0.04276056667386108,0.03298672286269283,0.0,-1858,-478,-10,4124,310,100603
12:14:12.434,4301,137.6953125,155.2734375,-1012.6953125,0.02809980095710871,0.03543018381548489,-0.012217304763960306,-1850,-473,-10,4124,310,100603
12:14:12.454,4302,136.71875,150.390625,-1007.8125,0.03420845333908886,0.023212879051524585,-0.014660765716752368,-1856,-477,-22,4124,310,100606
12:14:12.474,4303,133.7890625,148.4375,-995.1171875,0.01710422666954443,0.025656340004316647,-0.01710422666954443,-1858,-479,-10,4124,310,100606
12:14:12.504,4304,128.90625,153.3203125,-997.0703125,-0.01710422666954443,0.03787364476827696,-0.023212879051524585,-1851,-476,-14,4124,310,100606
12:14:12.525,4305,133.7890625,161.1328125,-993.1640625,-0.024434609527920613,0.0317649923862968,-0.02809980095710871,-1838,-478,-20,4124,310,100606
12:14:12.545,4306,138.671875,162.109375,-994.140625,-0.026878070480712675,0.039095375244672985,-0.021991148575128554,-1853,-477,-21,4124,310,100606
12:14:12.565,4307,136.71875,175.78125,-987.3046875,-0.014660765716752368,0.0317649923862968,-0.01710422666954443,-1831,-468,-23,4124,310,100606
12:14:12.575,4308,138.671875,174.8046875,-983.3984375,0.021991148575128554,0.025656340004316647,-0.01832595714594046,-1838,-468,-13,4124,310,100606
12:14:12.595,4309,135.7421875,165.0390625,-983.3984375,0.03298672286269283,0.0158824961931484,-0.0012217304763960308,-1856,-479,-16,4124,310,100606
12:14:12.616,4310,135.7421875,163.0859375,-982.421875,0.0,0.013439035240356337,0.006108652381980153,-1854,-475,-27,4124,310,100606
12:14:12.636,4311,137.6953125,159.1796875,-990.234375,-0.01710422666954443,0.009773843811168246,0.014660765716752368,-1851,-474,-19,4124,310,100606
12:14:12.646,4312,140.625,161.1328125,-989.2578125,-0.023212879051524585,0.009773843811168246,0.01710422666954443,-1843,-470,-15,4124,310,100606
12:14:12.667,4313,141.6015625,162.109375,-993.1640625,0.0024434609527920616,0.021991148575128554,0.004886921905584123,-1859,-482,-16,4124,310,100606
12:14:12.688,4314,137.6953125,155.2734375,-996.09375,0.03787364476827696,0.01710422666954443,0.0,-1858,-480,-18,4124,310,100606
12:14:12.708,4315,133.7890625,149.4140625,-1006.8359375,0.03054326190990077,-0.0012217304763960308,-0.006108652381980153,-1841,-475,-15,4124,310,100606
12:14:12.729,4316,130.859375,146.484375,-1000.0,0.023212879051524585,-0.0012217304763960308,0.0024434609527920616,-1852,-482,-19,4124,310,100606
12:14:12.739,4317,136.71875,150.390625,-1006.8359375,0.007330382858376184,0.01710422666954443,-0.006108652381980153,-1859,-478,-27,4124,310,100606
12:14:12.760,4318,127.9296875,154.296875,-1014.6484375,0.03420845333908886,0.01710422666954443,-0.010995574287564277,-1858,-477,-20,4124,310,100606
12:14:12.780,4319,130.859375,147.4609375,-1006.8359375,0.021991148575128554,0.02809980095710871,0.003665191429188092,-1855,-480,-21,4124,310,100606
12:14:12.800,4320,130.859375,143.5546875,-1005.859375,-0.01710422666954443,0.029321531433504737,0.003665191429188092,-1849,-479,-21,4124,310,100606
12:14:12.810,4321,144.53125,156.25,-1004.8828125,-0.025656340004316647,0.03054326190990077,-0.0012217304763960308,-1850,-480,-28,4124,310,100606
12:14:12.831,4322,140.625,159.1796875,-996.09375,0.020769418098732523,0.026878070480712675,-0.01832595714594046,-1847,-475,-19,4124,310,100606
12:14:12.851,4323,136.71875,149.4140625,-993.1640625,0.04398229715025711,0.025656340004316647,-0.01832595714594046,-1853,-475,-22,4124,310,100606
12:14:12.871,4324,134.765625,151.3671875,-994.140625,0.02809980095710871,0.023212879051524585,-0.01710422666954443,-1855,-480,-22,4124,310,100606
12:14:12.892,4325,134.765625,143.5546875,-993.1640625,0.01832595714594046,0.01832595714594046,-0.01710422666954443,-1854,-483,-14,4124,310,100606
12:14:12.902,4326,136.71875,153.3203125,-986.328125,-0.007330382858376184,0.03054326190990077,-0.0024434609527920616,-1853,-479,-13,4124,310,100606
12:14:12.922,4327,138.671875,157.2265625,-993.1640625,0.0012217304763960308,0.021991148575128554,-0.008552113334772215,-1850,-483,-16,4124,310,100606
12:14:12.943,4328,142.578125,155.2734375,-986.328125,0.003665191429188092,0.024434609527920613,-0.003665191429188092,-1857,-472,-32,4124,310,100606
12:14:12.995,4329,136.71875,153.3203125,-985.3515625,-0.008552113334772215,0.014660765716752368,-0.010995574287564277,-1844,-474,-19,4124,310,100606
12:14:13.16,4330,141.6015625,158.203125,-986.328125,-0.008552113334772215,0.003665191429188092,0.0012217304763960308,-1857,-475,-12,4124,310,100606
12:14:13.37,4331,142.578125,155.2734375,-983.3984375,0.0012217304763960308,0.009773843811168246,0.006108652381980153,-1850,-476,-18,4124,310,100606
12:14:13.58,4332,137.6953125,155.2734375,-993.1640625,0.009773843811168246,0.010995574287564277,0.0012217304763960308,-1852,-478,-19,4124,310,100606
12:14:13.68,4333,139.6484375,153.3203125,-999.0234375,0.021991148575128554,0.004886921905584123,0.0024434609527920616,-1847,-478,-21,4124,310,100606
12:14:13.89,4334,141.6015625,152.34375,-1001.953125,0.023212879051524585,-0.0012217304763960308,0.006108652381980153,-1859,-481,-16,4124,310,100606
12:14:13.110,4335,135.7421875,152.34375,-990.234375,0.03665191429188092,-0.008552113334772215,0.0012217304763960308,-1855,-480,-18,4124,310,100606
12:14:13.131,4336,129.8828125,148.4375,-1005.859375,0.06841690667817772,-0.014660765716752368,0.003665191429188092,-1855,-481,-21,4124,310,100606
12:14:13.141,4337,131.8359375,123.046875,-1008.7890625,0.025656340004316647,0.003665191429188092,0.0158824961931484,-1853,-479,-16,4124,310,100606
12:14:13.162,4338,126.953125,130.859375,-1004.8828125,-0.04398229715025711,0.019547687622336492,0.009773843811168246,-1854,-477,-20,4124,310,100606
12:14:13.182,4339,135.7421875,142.578125,-1016.6015625,-0.051312680008633295,0.021991148575128554,-0.01832595714594046,-1858,-482,-18,4124,310,100606
12:14:13.203,4340,135.7421875,139.6484375,-1012.6953125,-0.03543018381548489,0.020769418098732523,-0.02809980095710871,-1851,-472,-9,4124,310,100606
12:14:13.214,4341,133.7890625,143.5546875,-1003.90625,-0.04031710572106901,0.01710422666954443,-0.01832595714594046,-1854,-479,-23,4124,310,100606
12:14:13.234,4342,138.671875,160.15625,-1004.8828125,-0.008552113334772215,0.013439035240356337,-0.012217304763960306,-1856,-479,-3,4124,310,100606
12:14:13.255,4343,133.7890625,151.3671875,-1008.7890625,0.01710422666954443,0.01710422666954443,-0.01832595714594046,-1844,-476,-20,4124,310,100606
12:14:13.275,4344,134.765625,147.4609375,-1000.0,-0.006108652381980153,0.012217304763960306,-0.0158824961931484,-1856,-479,-13,4124,310,100606
12:14:13.285,4345,134.765625,149.4140625,-999.0234375,-0.023212879051524585,0.020769418098732523,-0.012217304763960306,-1849,-478,-16,4124,310,100606
12:14:13.306,4346,137.6953125,171.875,-1003.90625,0.007330382858376184,0.021991148575128554,-0.003665191429188092,-1850,-481,-14,4124,310,100606
12:14:13.326,4347,135.7421875,164.0625,-996.09375,0.08063421144213802,0.013439035240356337,0.004886921905584123,-1855,-486,-17,4124,310,100606
12:14:13.346,4348,130.859375,145.5078125,-994.140625,0.0635299847725936,0.008552113334772215,0.009773843811168246,-1852,-481,-18,4124,310,100606
12:14:13.367,4349,127.9296875,153.3203125,-1005.859375,0.024434609527920613,0.013439035240356337,0.0012217304763960308,-1854,-479,-26,4124,310,100606
12:14:13.377,4350,133.7890625,151.3671875,-1017.578125,0.020769418098732523,0.01710422666954443,0.004886921905584123,-1836,-479,-23,4124,310,100606
12:14:13.397,4351,136.71875,141.6015625,-1017.578125,-0.025656340004316647,0.03420845333908886,0.021991148575128554,-1852,-482,-15,4124,310,100606
12:14:13.418,4352,141.6015625,149.4140625,-1016.6015625,-0.03420845333908886,0.0476474885794452,0.023212879051524585,-1848,-486,-15,4124,310,100604
12:14:13.439,4353,141.6015625,151.3671875,-1003.90625,0.026878070480712675,0.04398229715025711,0.01832595714594046,-1850,-488,-25,4124,310,100604
12:14:13.449,4354,138.671875,136.71875,-1002.9296875,0.058643062867009474,0.04153883619746505,0.006108652381980153,-1849,-483,-14,4124,310,100604
12:14:13.470,4355,143.5546875,133.7890625,-996.09375,0.04153883619746505,0.03298672286269283,-0.0012217304763960308,-1851,-485,-22,4124,310,100604
12:14:13.490,4356,141.6015625,128.90625,-990.234375,0.01710422666954443,0.03665191429188092,0.0,-1852,-481,-18,4124,310,100604
12:14:13.511,4357,140.625,131.8359375,-982.421875,-0.02809980095710871,0.03787364476827696,0.003665191429188092,-1842,-482,-19,4124,310,100604
12:14:13.532,4358,138.671875,145.5078125,-972.65625,-0.04276056667386108,0.03665191429188092,-0.003665191429188092,-1854,-484,-19,4124,310,100604
12:14:13.542,4359,142.578125,148.4375,-968.75,0.008552113334772215,0.029321531433504737,-0.0012217304763960308,-1852,-483,-13,4124,310,100604
12:14:13.562,4360,144.53125,128.90625,-946.2890625,0.004886921905584123,0.008552113334772215,0.010995574287564277,-1846,-482,-14,4124,310,100604
12:14:13.583,4361,144.53125,129.8828125,-945.3125,-0.025656340004316647,-0.008552113334772215,0.0158824961931484,-1844,-485,-19,4124,310,100604
12:14:13.604,4362,146.484375,143.5546875,-944.3359375,0.008552113334772215,-0.03665191429188092,-0.0012217304763960308,-1846,-488,-5,4124,310,100604
12:14:13.614,4363,128.90625,132.8125,-931.640625,0.04031710572106901,-0.0635299847725936,-0.024434609527920613,-1851,-488,-11,4124,310,100604
12:14:13.636,4364,135.7421875,118.1640625,-934.5703125,0.026878070480712675,-0.08918632477691024,-0.023212879051524585,-1847,-489,-16,4124,310,100604
12:14:13.656,4365,140.625,127.9296875,-937.5,0.013439035240356337,-0.12095131716320705,-0.013439035240356337,-1853,-484,-8,4124,310,100604
12:14:13.687,4366,125.0,125.0,-938.4765625,0.04276056667386108,-0.12828170002158323,-0.021991148575128554,-1851,-485,-18,4124,310,100604
12:14:13.707,4367,125.0,122.0703125,-936.5234375,0.039095375244672985,-0.16493361431346415,-0.04398229715025711,-1855,-485,-11,4124,310,100604
12:14:13.728,4368,125.0,124.0234375,-943.359375,0.04642575810304917,-0.1893682238413848,-0.05009094953223726,-1852,-483,-17,4124,310,100604
12:14:13.769,4369,125.9765625,122.0703125,-932.6171875,0.025656340004316647,-0.2101376419401173,-0.052534410485029326,-1862,-488,-17,4124,310,100604
12:14:13.779,4370,119.140625,126.953125,-916.9921875,0.006108652381980153,-0.2309070600388498,-0.05375614096142535,-1857,-486,-16,4124,310,100604
12:14:13.801,4371,114.2578125,127.9296875,-909.1796875,0.009773843811168246,-0.26267205242514663,-0.06597344572538566,-1847,-483,-22,4124,310,100604
12:14:13.821,4372,111.328125,123.046875,-910.15625,0.023212879051524585,-0.2871066619530672,-0.05375614096142535,-1864,-486,-19,4124,310,100604
12:14:13.832,4373,104.4921875,124.0234375,-896.484375,-0.024434609527920613,-0.3298672286269283,-0.06230825429619757,-1867,-482,-17,4124,310,100604
12:14:13.852,4374,99.609375,133.7890625,-885.7421875,-0.08796459430051422,-0.3628539514896212,-0.07574728953655392,-1873,-486,-11,4124,310,100604
12:14:13.873,4375,99.609375,149.4140625,-893.5546875,-0.09162978572970232,-0.41050144006906636,-0.06475171524898964,-1876,-483,-25,4124,310,100604
12:14:13.894,4376,75.1953125,167.96875,-895.5078125,-0.052534410485029326,-0.4691445029360758,-0.052534410485029326,-1880,-482,-20,4124,310,100604
12:14:13.914,4377,66.40625,166.015625,-888.671875,-0.03543018381548489,-0.49968776484597655,-0.05375614096142535,-1885,-488,-20,4124,310,100604
12:14:13.925,4378,50.78125,155.2734375,-886.71875,-0.04642575810304917,-0.5351179486614615,-0.05375614096142535,-1876,-481,-22,4124,310,100604
12:14:13.945,4379,41.015625,167.96875,-906.25,-0.006108652381980153,-0.5791002458117186,-0.02809980095710871,-1895,-487,-31,4124,310,100604
12:14:13.965,4380,20.5078125,140.625,-889.6484375,-0.006108652381980153,-0.6035348553396392,-0.024434609527920613,-1898,-483,-32,4124,310,100604
12:14:13.986,4381,11.71875,133.7890625,-891.6015625,-0.06597344572538566,-0.631634656296748,-0.01832595714594046,-1906,-486,-23,4124,310,100604
12:14:13.996,4382,5.859375,134.765625,-894.53125,-0.09407324668249437,-0.676838683923401,-0.004886921905584123,-1916,-486,-20,4124,310,100604
12:14:14.17,4383,-29.296875,136.71875,-854.4921875,-0.1111774733520388,-0.7147123286916779,-0.009773843811168246,-1918,-484,-34,4124,310,100604
12:14:14.57,4384,-51.7578125,128.90625,-824.21875,-0.15271630954950383,-0.7770205829878756,-0.03665191429188092,-1926,-485,-24,4124,310,100604
12:14:14.78,4385,-43.9453125,141.6015625,-868.1640625,-0.10506882097005865,-0.8478809506188453,-0.052534410485029326,-1921,-481,-36,4124,310,100604
12:14:14.89,4386,-74.21875,138.671875,-848.6328125,-0.0830776723949301,-0.9004153611038747,-0.06230825429619757,-1943,-485,-45,4124,310,100604
12:14:14.109,4387,-91.796875,157.2265625,-840.8203125,-0.05009094953223726,-0.9639453458764682,-0.09773843811168245,-1950,-482,-27,4124,310,100604
12:14:14.130,4388,-141.6015625,181.640625,-853.515625,0.051312680008633295,-1.0225884087434776,-0.10873401239924674,-1960,-483,-31,4124,310,100604
12:14:14.150,4389,-173.828125,157.2265625,-872.0703125,0.16126842288427604,-1.0580185925589627,-0.08796459430051422,-1953,-474,-47,4124,310,100604
12:14:14.160,4390,-172.8515625,106.4453125,-828.125,-0.01832595714594046,-1.073901088752111,-0.05619960191421742,-1973,-486,-44,4124,310,100604
12:14:14.181,4391,-186.5234375,157.2265625,-836.9140625,-0.23945917337362205,-1.1081095420912,-0.08185594191853407,-1991,-482,-50,4124,310,100604
12:14:14.201,4392,-230.46875,210.9375,-896.484375,0.003665191429188092,-1.2144000935376547,-0.08552113334772216,-1987,-478,-50,4124,310,100604
12:14:14.221,4393,-291.9921875,188.4765625,-856.4453125,0.1343903524035634,-1.2583823906879117,-0.06230825429619757,-2006,-486,-65,4124,310,100604
12:14:14.242,4394,-306.640625,139.6484375,-851.5625,0.08918632477691024,-1.2779300783102483,-0.048869219055841226,-2019,-488,-75,4124,310,100604
12:14:14.252,4395,-311.5234375,145.5078125,-828.125,-0.0317649923862968,-1.3133602621257332,-0.04520402762665313,-2019,-485,-72,4124,310,100604
12:14:14.273,4396,-396.484375,158.203125,-841.796875,-0.05742133239061345,-1.350012176417614,-0.039095375244672985,-2036,-489,-75,4124,310,100604
12:14:14.294,4397,-417.96875,137.6953125,-881.8359375,-0.052534410485029326,-1.4062117783318313,0.006108652381980153,-2050,-484,-89,4124,310,100604
12:14:14.315,4398,-379.8828125,154.296875,-924.8046875,0.026878070480712675,-1.4575244583404645,0.03665191429188092,-2056,-487,-96,4124,310,100604
12:14:14.325,4399,-402.34375,161.1328125,-895.5078125,0.20402898955813717,-1.464854841198841,0.009773843811168246,-2057,-482,-102,4124,310,100604
12:14:14.345,4400,-501.953125,126.953125,-731.4453125,0.11850785621041499,-1.4391985011945243,-0.0476474885794452,-2081,-491,-111,4124,310,100604
12:14:14.366,4401,-535.15625,77.1484375,-869.140625,-0.1148426647812269,-1.4049900478554356,0.0012217304763960308,-2086,-487,-140,4124,310,100604
12:14:14.397,4402,-439.453125,136.71875,-928.7109375,-0.16737707526625623,-1.4550809973876726,-0.0024434609527920616,-2097,-484,-139,4124,310,100604
12:14:14.418,4403,-525.390625,193.359375,-864.2578125,-0.04153883619746505,-1.4831807983447813,-0.06841690667817772,-2115,-488,-139,4124,310,100604
12:14:14.439,4404,-610.3515625,208.0078125,-726.5625,0.01710422666954443,-1.4844025288211775,-0.11239920382843484,-2116,-486,-146,4124,310,100604
12:14:14.459,4405,-688.4765625,175.78125,-687.5,-0.07086036763096978,-1.4844025288211775,-0.08552113334772216,-2123,-490,-153,4124,310,100604
12:14:14.480,4406,-637.6953125,188.4765625,-820.3125,-0.058643062867009474,-1.5308282869242267,0.07208209810736582,-2131,-486,-168,4124,310,100604
12:14:14.490,4407,-620.1171875,190.4296875,-828.125,-0.07452555906015788,-1.620014611701137,0.18570303241219668,-2144,-488,-183,4124,310,100604
12:14:14.510,4408,-695.3125,198.2421875,-752.9296875,-0.008552113334772215,-1.6310101859887012,0.15149457907310784,-2158,-490,-195,4124,310,100604
12:14:14.532,4409,-731.4453125,227.5390625,-624.0234375,0.04031710572106901,-1.58824961931484,0.021991148575128554,-2165,-482,-208,4124,310,100604
12:14:14.552,4410,-805.6640625,198.2421875,-674.8046875,0.14416419621473164,-1.6016886545551965,0.03543018381548489,-2165,-481,-216,4124,310,100604
12:14:14.563,4411,-753.90625,171.875,-810.546875,0.20036379812894903,-1.663996908851394,0.1734857276482364,-2175,-486,-226,4124,310,100604
12:14:14.583,4412,-782.2265625,173.828125,-782.2265625,0.20402898955813717,-1.7201965107656112,0.2186897552748895,-2190,-484,-237,4124,310,100604
12:14:14.604,4413,-850.5859375,170.8984375,-670.8984375,0.3078760800517997,-1.711644397430839,0.18448130193580062,-2185,-477,-258,4124,310,100604
12:14:14.625,4414,-870.1171875,176.7578125,-559.5703125,0.2687807048071268,-1.6346753774178893,0.08796459430051422,-2206,-483,-267,4124,310,100604
12:14:14.635,4415,-886.71875,151.3671875,-672.8515625,0.2956587752878394,-1.5992451936024044,0.06963863715457375,-2210,-482,-296,4124,310,100604
12:14:14.675,4416,-823.2421875,172.8515625,-765.625,0.32253684576855207,-1.6444492212290573,0.1478293876439197,-2210,-479,-289,4124,310,100604
12:14:14.696,4417,-853.515625,163.0859375,-694.3359375,0.22846359908605776,-1.6444492212290573,0.20647245051092922,-2201,-478,-314,4124,310,100604
12:14:14.717,4418,-879.8828125,145.5078125,-583.0078125,0.10140362954087055,-1.58824961931484,0.15271630954950383,-2217,-478,-323,4124,310,100604
12:14:14.727,4419,-959.9609375,202.1484375,-472.65625,-0.01832595714594046,-1.4844025288211775,0.08796459430051422,-2221,-470,-335,4124,310,100604
12:14:14.747,4420,-1037.109375,194.3359375,-480.46875,-0.11362093430483088,-1.478293876439197,0.1466076571675237,-2212,-472,-339,4124,310,100604
12:14:14.768,4421,-1041.015625,183.59375,-479.4921875,-0.3029891581462157,-1.5186109821602662,0.2675589743307307,-2232,-473,-351,4124,310,100604
12:14:14.789,4422,-1004.8828125,180.6640625,-526.3671875,-0.3726277953007894,-1.5601498183577314,0.37507125625358145,-2228,-471,-378,4124,310,100604
12:14:14.820,4423,-966.796875,201.171875,-470.703125,-0.2736676267127109,-1.596801732649612,0.39706240482871,-2235,-463,-385,4124,310,100604
12:14:14.841,4424,-1014.6484375,213.8671875,-389.6484375,-0.2076941809873252,-1.5442673221645826,0.29810223624063154,-2228,-463,-395,4124,310,100604
12:14:14.862,4425,-1098.6328125,198.2421875,-407.2265625,-0.2431243648028101,-1.42820292690696,0.1869247628885927,-2229,-463,-424,4124,310,100604
12:14:14.872,4426,-1095.703125,182.6171875,-538.0859375,-0.1869247628885927,-1.3891075516622868,0.23335052099164189,-2231,-458,-419,4124,310,100604
12:14:14.893,4427,-1030.2734375,200.1953125,-583.984375,-0.051312680008633295,-1.3756685164219307,0.2712241657599188,-2224,-445,-441,4124,310,100604
12:14:14.914,4428,-1014.6484375,185.546875,-580.078125,0.05497787143782139,-1.26815623449908,0.2736676267127109,-2241,-452,-445,4124,310,100604
12:14:14.934,4429,-1006.8359375,134.765625,-519.53125,-0.0671951762017817,-1.1191051163787642,0.24068090385001806,-2236,-449,-449,4124,310,100604
12:14:14.955,4430,-1020.5078125,145.5078125,-468.75,-0.36041049053682905,-0.9285151620609834,0.16126842288427604,-2237,-447,-455,4124,310,100604
12:14:14.965,4431,-1042.96875,183.59375,-455.078125,-0.6585127267774605,-0.79412480965742,0.09040805525330627,-2234,-444,-469,4124,310,100604
12:14:14.985,4432,-1061.5234375,230.46875,-427.734375,-0.8075638448977764,-0.7195992505972622,0.09651670763528641,-2232,-444,-481,4124,310,100604
12:14:15.6,4433,-1044.921875,255.859375,-361.328125,-0.8381071068076771,-0.6817256058289851,0.14416419621473164,-2233,-443,-483,4124,310,100604
12:14:15.26,4434,-1009.765625,273.4375,-315.4296875,-0.6401867696315202,-0.6548475353482726,0.2235766771804736,-2229,-440,-486,4124,310,100604
12:14:15.36,4435,-976.5625,279.296875,-297.8515625,-0.41416663149825445,-0.6377433086787281,0.22724186860966175,-2221,-437,-475,4124,310,100604
12:14:15.57,4436,-946.2890625,261.71875,-280.2734375,-0.1734857276482364,-0.6206390820091836,0.20647245051092922,-2230,-442,-484,4124,310,100604
12:14:15.98,4437,-945.3125,237.3046875,-290.0390625,0.04276056667386108,-0.5986479334340551,0.17715091907742447,-2226,-442,-511,4124,310,100604
12:14:15.118,4438,-952.1484375,208.0078125,-268.5546875,0.13194689145077132,-0.5595525581893821,0.14416419621473164,-2222,-440,-511,4124,310,100604
12:14:15.128,4439,-958.0078125,213.8671875,-237.3046875,0.18570303241219668,-0.5253441048502933,0.09773843811168245,-2228,-437,-495,4124,310,100604
12:14:15.149,4440,-961.9140625,238.28125,-246.09375,0.2932153143350474,-0.45204027626653137,0.06475171524898964,-2230,-437,-518,4124,310,100604
12:14:15.169,4441,-977.5390625,200.1953125,-232.421875,0.2822197400474831,-0.3286454981505323,0.06475171524898964,-2226,-435,-511,4124,310,100604
12:14:15.189,4442,-972.65625,173.828125,-214.84375,-0.014660765716752368,-0.16859880574265224,0.04276056667386108,-2225,-431,-517,4124,310,100604
12:14:15.210,4443,-965.8203125,195.3125,-199.21875,-0.2076941809873252,-0.1111774733520388,0.0024434609527920616,-2226,-428,-526,4124,310,100604
12:14:15.241,4444,-968.75,237.3046875,-199.21875,-0.2748893571891069,-0.08796459430051422,-0.03543018381548489,-2224,-432,-525,4124,310,100604
12:14:15.261,4445,-977.5390625,263.671875,-190.4296875,-0.18814649336498873,-0.08185594191853407,-0.04031710572106901,-2218,-431,-523,4124,310,100604
12:14:15.282,4446,-978.515625,282.2265625,-180.6640625,-0.0476474885794452,-0.08552113334772216,-0.01710422666954443,-2222,-436,-520,4124,310,100604
12:14:15.302,4447,-975.5859375,289.0625,-156.25,0.08552113334772216,-0.10140362954087055,0.010995574287564277,-2221,-434,-520,4124,310,100604
12:14:15.312,4448,-970.703125,271.484375,-144.53125,0.12828170002158323,-0.12095131716320705,0.04276056667386108,-2212,-431,-532,4124,310,100604
12:14:15.333,4449,-967.7734375,285.15625,-125.0,0.1478293876439197,-0.1075122819228507,0.06841690667817772,-2227,-433,-521,4124,310,100604
12:14:15.354,4450,-948.2421875,286.1328125,-112.3046875,0.24068090385001806,-0.0830776723949301,0.04398229715025711,-2228,-433,-523,4124,310,100604
12:14:15.374,4451,-944.3359375,287.109375,-110.3515625,0.2907718533822553,-0.07819075048934597,0.03543018381548489,-2224,-432,-522,4124,310,100604
12:14:15.384,4452,-941.40625,292.96875,-96.6796875,0.3445279943436807,-0.07696902001294993,0.024434609527920613,-2223,-430,-530,4118,310,100610
12:14:15.405,4453,-940.4296875,295.8984375,-90.8203125,0.39339721339952194,-0.09407324668249437,0.04153883619746505,-2227,-432,-532,4118,310,100610
12:14:15.425,4454,-940.4296875,286.1328125,-85.9375,0.41905355340383854,-0.0989601685880785,0.048869219055841226,-2217,-431,-536,4118,310,100610
12:14:15.446,4455,-949.21875,268.5546875,-80.078125,0.37018433434799736,-0.0830776723949301,0.06963863715457375,-2202,-420,-527,4118,310,100610
12:14:15.456,4456,-941.40625,256.8359375,-77.1484375,0.27611108766550296,-0.058643062867009474,0.05619960191421742,-2222,-430,-538,4118,310,100610
12:14:15.477,4457,-933.59375,261.71875,-70.3125,0.2223549467040776,-0.03787364476827696,0.03054326190990077,-2217,-434,-541,4118,310,100610
12:14:15.518,4458,-934.5703125,264.6484375,-75.1953125,0.2101376419401173,-0.0317649923862968,0.007330382858376184,-2219,-428,-529,4118,310,100610
12:14:15.538,4459,-938.4765625,269.53125,-79.1015625,0.2419026343264141,-0.04642575810304917,-0.0024434609527920616,-2226,-425,-536,4118,310,100610
12:14:15.549,4460,-942.3828125,261.71875,-82.03125,0.2235766771804736,-0.051312680008633295,0.003665191429188092,-2220,-424,-543,4118,310,100610
12:14:15.570,4461,-942.3828125,250.9765625,-64.453125,0.14538592669112765,-0.04642575810304917,0.0024434609527920616,-2219,-422,-537,4118,310,100610
12:14:15.590,4462,-949.21875,250.9765625,-57.6171875,0.05986479334340551,-0.03420845333908886,-0.003665191429188092,-2204,-417,-529,4118,310,100610
12:14:15.610,4463,-945.3125,255.859375,-51.7578125,0.029321531433504737,-0.02809980095710871,-0.025656340004316647,-2218,-422,-544,4118,310,100610
12:14:15.661,4464,-941.40625,265.625,-70.3125,0.07819075048934597,-0.019547687622336492,-0.024434609527920613,-2221,-427,-540,4118,310,100610
12:14:15.681,4465,-939.453125,253.90625,-85.9375,0.08429940287132612,-0.003665191429188092,-0.019547687622336492,-2220,-421,-529,4118,310,100610
12:14:15.702,4466,-938.4765625,237.3046875,-66.40625,-0.039095375244672985,0.013439035240356337,-0.010995574287564277,-2207,-417,-534,4118,310,100610
12:14:15.712,4467,-934.5703125,257.8125,-62.5,-0.13683381335635544,0.021991148575128554,-0.03665191429188092,-2224,-429,-536,4118,310,100610
12:14:15.732,4468,-933.59375,270.5078125,-74.21875,-0.08185594191853407,0.026878070480712675,-0.02809980095710871,-2224,-426,-533,4118,310,100610
12:14:15.753,4469,-937.5,276.3671875,-76.171875,-0.03298672286269283,0.0158824961931484,-0.021991148575128554,-2222,-425,-532,4118,310,100610
12:14:15.773,4470,-942.3828125,269.53125,-70.3125,-0.023212879051524585,0.014660765716752368,-0.004886921905584123,-2215,-429,-538,4118,310,100610
12:14:15.794,4471,-950.1953125,271.484375,-68.359375,-0.03054326190990077,0.008552113334772215,-0.007330382858376184,-2219,-424,-531,4118,310,100610
12:14:15.804,4472,-947.265625,263.671875,-67.3828125,-0.048869219055841226,0.008552113334772215,0.012217304763960306,-2221,-428,-528,4118,310,100610
12:14:15.824,4473,-944.3359375,270.5078125,-76.171875,-0.06841690667817772,0.009773843811168246,0.007330382858376184,-2220,-429,-531,4118,310,100610
12:14:15.844,4474,-950.1953125,277.34375,-74.21875,-0.06108652381980154,0.012217304763960306,0.0012217304763960308,-2221,-426,-537,4118,310,100610
12:14:15.865,4475,-946.2890625,282.2265625,-81.0546875,-0.03787364476827696,0.019547687622336492,-0.008552113334772215,-2225,-425,-529,4118,310,100610
12:14:15.876,4476,-941.40625,284.1796875,-70.3125,-0.019547687622336492,0.013439035240356337,0.004886921905584123,-2221,-422,-546,4118,310,100610
12:14:15.896,4477,-943.359375,284.1796875,-68.359375,-0.004886921905584123,0.0012217304763960308,0.012217304763960306,-2218,-423,-540,4118,310,100610
12:14:15.917,4478,-940.4296875,280.2734375,-72.265625,0.0024434609527920616,0.007330382858376184,0.026878070480712675,-2221,-426,-544,4118,310,100610
12:14:15.938,4479,-940.4296875,265.625,-77.1484375,-0.04276056667386108,0.013439035240356337,0.026878070480712675,-2218,-426,-544,4118,310,100610
12:14:15.959,4480,-945.3125,263.671875,-71.2890625,-0.09407324668249437,0.021991148575128554,0.009773843811168246,-2219,-425,-553,4118,310,100610
12:14:15.969,4481,-939.453125,276.3671875,-72.265625,-0.09651670763528641,0.03054326190990077,0.004886921905584123,-2220,-427,-542,4118,310,100610
12:14:15.990,4482,-935.546875,283.203125,-69.3359375,-0.05009094953223726,0.0158824961931484,-0.008552113334772215,-2219,-426,-545,4118,310,100610
12:14:16.11,4483,-936.5234375,284.1796875,-69.3359375,-0.012217304763960306,-0.004886921905584123,0.009773843811168246,-2214,-422,-536,4118,310,100610
12:14:16.32,4484,-941.40625,273.4375,-72.265625,0.013439035240356337,-0.0012217304763960308,0.007330382858376184,-2220,-424,-532,4118,310,100610
12:14:16.42,4485,-943.359375,267.578125,-68.359375,0.006108652381980153,-0.004886921905584123,0.0012217304763960308,-2217,-424,-521,4118,310,100610
12:14:16.82,4486,-943.359375,270.5078125,-67.3828125,0.003665191429188092,-0.007330382858376184,-0.0158824961931484,-2217,-421,-542,4118,310,100610
12:14:16.103,4487,-940.4296875,263.671875,-68.359375,-0.0012217304763960308,-0.008552113334772215,-0.020769418098732523,-2218,-422,-540,4118,310,100610
12:14:16.153,4488,-940.4296875,263.671875,-64.453125,-0.007330382858376184,-0.010995574287564277,-0.039095375244672985,-2220,-427,-550,4118,310,100610
12:14:16.174,4489,-941.40625,273.4375,-72.265625,0.0024434609527920616,-0.004886921905584123,-0.052534410485029326,-2219,-423,-531,4118,310,100610
12:14:16.194,4490,-940.4296875,274.4140625,-66.40625,0.04642575810304917,-0.013439035240356337,-0.051312680008633295,-2206,-420,-536,4118,310,100610
12:14:16.204,4491,-940.4296875,276.3671875,-68.359375,0.08063421144213802,-0.023212879051524585,-0.039095375244672985,-2216,-424,-549,4118,310,100610
12:14:16.225,4492,-943.359375,262.6953125,-72.265625,0.04642575810304917,-0.012217304763960306,-0.03665191429188092,-2218,-426,-545,4118,310,100610
12:14:16.245,4493,-947.265625,263.671875,-77.1484375,0.014660765716752368,-0.004886921905584123,-0.0476474885794452,-2223,-423,-530,4118,310,100610
12:14:16.265,4494,-940.4296875,264.6484375,-74.21875,0.006108652381980153,-0.004886921905584123,-0.05619960191421742,-2205,-417,-539,4118,310,100610
12:14:16.286,4495,-945.3125,277.34375,-74.21875,0.03054326190990077,0.004886921905584123,-0.051312680008633295,-2217,-428,-543,4118,310,100610
12:14:16.296,4496,-955.078125,278.3203125,-80.078125,0.06108652381980154,0.012217304763960306,-0.03543018381548489,-2219,-423,-548,4118,310,100610
12:14:16.317,4497,-954.1015625,267.578125,-69.3359375,0.03787364476827696,0.0158824961931484,-0.019547687622336492,-2219,-424,-545,4118,310,100610
12:14:16.338,4498,-954.1015625,258.7890625,-73.2421875,-0.0012217304763960308,0.023212879051524585,-0.006108652381980153,-2210,-420,-549,4118,310,100610
12:14:16.359,4499,-945.3125,264.6484375,-78.125,-0.025656340004316647,0.025656340004316647,-0.0012217304763960308,-2220,-421,-542,4118,310,100610
12:14:16.369,4500,-952.1484375,263.671875,-74.21875,-0.013439035240356337,0.02809980095710871,0.003665191429188092,-2222,-425,-535,4118,310,100610
12:14:16.389,4501,-956.0546875,266.6015625,-62.5,-0.010995574287564277,0.03298672286269283,0.009773843811168246,-2223,-426,-546,4118,310,100610
12:14:16.410,4502,-943.359375,267.578125,-64.453125,-0.014660765716752368,0.024434609527920613,0.019547687622336492,-2220,-422,-535,4124,310,100614
12:14:16.430,4503,-938.4765625,263.671875,-69.3359375,-0.008552113334772215,0.01832595714594046,0.004886921905584123,-2218,-420,-533,4124,310,100614
12:14:16.451,4504,-940.4296875,263.671875,-66.40625,-0.006108652381980153,0.021991148575128554,0.0,-2215,-419,-542,4124,310,100614
12:14:16.461,4505,-942.3828125,265.625,-63.4765625,0.004886921905584123,0.020769418098732523,-0.003665191429188092,-2225,-421,-538,4124,310,100614
12:14:16.482,4506,-938.4765625,263.671875,-62.5,0.03787364476827696,0.012217304763960306,0.0024434609527920616,-2221,-426,-537,4124,310,100614
12:14:16.503,4507,-940.4296875,270.5078125,-61.5234375,0.08552113334772216,0.004886921905584123,0.0012217304763960308,-2219,-422,-531,4124,310,100614
12:14:16.523,4508,-948.2421875,268.5546875,-64.453125,0.1478293876439197,-0.006108652381980153,-0.003665191429188092,-2218,-422,-551,4124,310,100614
12:14:16.534,4509,-950.1953125,257.8125,-57.6171875,0.1233947781159991,-0.013439035240356337,-0.004886921905584123,-2217,-425,-536,4124,310,100614
12:14:16.554,4510,-937.5,243.1640625,-57.6171875,0.058643062867009474,-0.004886921905584123,-0.008552113334772215,-2220,-424,-542,4124,310,100614
12:14:16.574,4511,-951.171875,247.0703125,-65.4296875,0.019547687622336492,-0.008552113334772215,-0.03054326190990077,-2214,-418,-537,4124,310,100614
12:14:16.595,4512,-942.3828125,262.6953125,-66.40625,0.03054326190990077,-0.014660765716752368,-0.04153883619746505,-2224,-416,-541,4124,310,100614
12:14:16.615,4513,-937.5,262.6953125,-64.453125,0.058643062867009474,-0.019547687622336492,-0.039095375244672985,-2220,-420,-542,4124,310,100614
12:14:16.625,4514,-935.546875,254.8828125,-70.3125,0.0867428638241182,-0.029321531433504737,-0.029321531433504737,-2221,-417,-542,4124,310,100614
12:14:16.645,4515,-939.453125,265.625,-71.2890625,0.05986479334340551,-0.019547687622336492,-0.014660765716752368,-2218,-418,-546,4124,310,100614
12:14:16.666,4516,-939.453125,279.296875,-83.0078125,0.03298672286269283,-0.012217304763960306,-0.008552113334772215,-2217,-417,-544,4124,310,100614
12:14:16.686,4517,-945.3125,305.6640625,-81.0546875,0.014660765716752368,0.0024434609527920616,0.008552113334772215,-2221,-420,-541,4124,310,100614
12:14:16.696,4518,-951.171875,334.9609375,-86.9140625,0.05742133239061345,0.023212879051524585,0.04642575810304917,-2211,-416,-534,4124,310,100614
12:14:16.717,4519,-966.796875,406.25,-92.7734375,0.14905111812031577,0.039095375244672985,0.1233947781159991,-2222,-418,-534,4124,310,100614
12:14:16.737,4520,-972.65625,459.9609375,-97.65625,0.3200933848157601,0.0476474885794452,0.2345722514680379,-2219,-418,-536,4124,310,100614
12:14:16.779,4521,-998.046875,505.859375,-95.703125,0.5473352534254218,0.08185594191853407,0.38606683054114566,-2220,-406,-544,4124,310,100614
12:14:16.789,4522,-1013.671875,645.5078125,-116.2109375,1.03114052207825,0.13683381335635544,0.5644394800949663,-2206,-401,-537,4124,310,100614
12:14:16.810,4523,-1032.2265625,724.609375,-208.984375,1.9144516565125802,0.1905899543177808,0.7831292353698558,-2215,-397,-535,4124,310,100614
12:14:16.831,4524,-1041.9921875,719.7265625,-319.3359375,2.910161994775345,0.26022859147235455,1.0445795573186063,-2214,-379,-522,4124,310,100614
12:14:16.851,4525,-1071.2890625,713.8671875,-412.109375,3.821572930166784,0.4593706591249076,1.5320500174006226,-2206,-366,-518,4124,310,100614
12:14:16.862,4526,-1090.8203125,726.5625,-467.7734375,3.9865065444802483,0.6829473363053812,1.8472564803107985,-2211,-347,-517,4124,310,100614
12:14:16.882,4527,-1125.9765625,701.171875,-514.6484375,3.7922513987332795,0.9871582249279928,2.1306979508346777,-2204,-319,-493,4124,310,100614
12:14:16.923,4528,-1120.1171875,679.6875,-575.1953125,3.213151152921561,1.2962560354561887,2.383596159448656,-2200,-309,-476,4124,310,100614
12:14:16.944,4529,-1117.1875,727.5390625,-633.7890625,2.5302038166161798,1.5687019316925037,2.62549879377507,-2194,-278,-465,4124,310,100614
12:14:16.954,4530,-1097.65625,857.421875,-650.390625,2.2113321622768156,1.794722069825769,2.852740662384732,-2184,-253,-431,4124,310,100614
12:14:16.975,4531,-1051.7578125,878.90625,-634.765625,2.3872613508778437,1.9792033717615696,3.050660999560889,-2176,-242,-419,4124,310,100614
12:14:16.996,4532,-1024.4140625,854.4921875,-650.390625,2.654820325208575,2.135584872740262,3.2314771100675013,-2146,-209,-390,4124,310,100614
12:14:17.16,4533,-943.359375,808.59375,-669.921875,2.781880294753762,2.3518311670623593,3.500257814874628,-2128,-191,-353,4124,310,100614
12:14:17.27,4534,-860.3515625,807.6171875,-687.5,2.8270843223804154,2.454456527079626,3.6089918272738752,-2114,-183,-335,4124,310,100614
12:14:17.120,4535,-754.8828125,792.96875,-702.1484375,2.906496803346158,2.5204299728050117,3.626096053943419,-2082,-162,-303,4124,310,100614
12:14:17.140,4536,-720.703125,758.7890625,-735.3515625,2.95170083097281,2.572964383290041,3.6114352882266667,-2042,-149,-270,4124,310,100614
12:14:17.161,4537,-674.8046875,746.09375,-760.7421875,2.9199358385865133,2.6572637861613675,3.6199874015614393,-2027,-144,-251,4124,310,100614
12:14:17.181,4538,-601.5625,723.6328125,-741.2109375,2.8796187328654446,2.747671841414673,3.6334264368017957,-1981,-143,-224,4124,310,100614
12:14:17.191,4539,-517.578125,716.796875,-754.8828125,2.8502972014319394,2.8368581661915835,3.624874323467023,-1945,-141,-186,4124,310,100614
12:14:17.212,4540,-426.7578125,660.15625,-778.3203125,2.8845056547710284,2.88084046334184,3.6016614444154986,-1920,-144,-181,4124,310,100614
12:14:17.232,4541,-332.03125,564.453125,-750.0,2.8417450880971677,2.8735100804834643,3.5576791472652416,-1876,-152,-137,4124,310,100614
12:14:17.253,4542,-229.4921875,465.8203125,-719.7265625,2.6572637861613675,2.8393016271443754,3.452610326295183,-1830,-162,-132,4124,310,100614
12:14:17.263,4543,-138.671875,418.9453125,-737.3046875,2.561968809002477,2.7782151033245737,3.3548718881835007,-1792,-179,-87,4124,310,100614
12:14:17.284,4544,-43.9453125,325.1953125,-700.1953125,2.4410174918392693,2.695137430929644,3.248581336737046,-1765,-189,-97,4124,310,100614
12:14:17.305,4545,32.2265625,259.765625,-684.5703125,2.2479840765686965,2.6010641842471496,3.1202996367154627,-1725,-207,-82,4124,310,100614
12:14:17.325,4546,126.953125,167.96875,-635.7421875,2.0402898955813713,2.489886710895111,2.9724702490715424,-1683,-227,-76,4124,310,100614
12:14:17.336,4547,192.3828125,134.765625,-633.7890625,1.8704693593623234,2.342057323251191,2.8307495138096033,-1673,-240,-76,4124,310,100614
12:14:17.356,4548,250.0,138.671875,-658.203125,1.8081611050661255,2.1759019784613307,2.671924551878119,-1640,-256,-79,4124,310,100614
12:14:17.377,4549,303.7109375,69.3359375,-639.6484375,1.8362609060232342,2.0146335555770545,2.5240951642341996,-1607,-284,-77,4124,310,100614
12:14:17.397,4550,337.890625,2.9296875,-645.5078125,1.7336355460059678,1.781283034585413,2.327396557534439,-1593,-295,-82,4124,310,100614
12:14:17.418,4551,385.7421875,-45.8984375,-640.625,1.5552628964521473,1.629788455512305,2.193006205130875,-1581,-320,-80,4124,310,100614
12:14:17.428,4552,437.5,-100.5859375,-605.46875,1.3280210278424853,1.4819590678683856,2.042733356534163,-1562,-340,-81,4118,310,100610
12:14:17.448,4553,477.5390625,-160.15625,-582.03125,1.0983356982800316,1.308473340220149,1.8753562812679074,-1547,-348,-83,4118,310,100610
12:14:17.469,4554,501.953125,-203.125,-591.796875,0.9346238144429636,1.115439924949576,1.700648823143275,-1544,-365,-91,4118,310,100610
12:14:17.490,4555,535.15625,-244.140625,-586.9140625,0.8552113334772216,0.9053022830094588,1.5247196345422465,-1531,-380,-83,4118,310,100610
12:14:17.500,4556,564.453125,-312.5,-578.125,0.8112290363269644,0.7269296334556383,1.3267992973660896,-1531,-385,-92,4118,310,100610
12:14:17.520,4557,594.7265625,-377.9296875,-526.3671875,0.6719517620178169,0.5448917924726296,1.1276572297135363,-1522,-401,-96,4118,310,100610
12:14:17.541,4558,601.5625,-428.7109375,-509.765625,0.4715879638888679,0.2700024352835228,0.8234463410909247,-1518,-412,-86,4118,310,100610
12:14:17.562,4559,596.6796875,-407.2265625,-572.265625,0.4447098934081552,0.0867428638241182,0.6133086991508074,-1517,-415,-87,4118,310,100610
12:14:17.614,4560,576.171875,-345.703125,-666.015625,0.4850269991292242,-0.10629055144645469,0.3909537524467298,-1503,-415,-104,4118,310,100610
12:14:17.634,4561,555.6640625,-354.4921875,-704.1015625,0.41416663149825445,-0.2712241657599188,0.20525072003453318,-1520,-429,-97,4118,310,100610
12:14:17.655,4562,558.59375,-406.25,-635.7421875,0.2138028333693054,-0.41905355340383854,0.05619960191421742,-1517,-425,-92,4118,310,100610
12:14:17.665,4563,559.5703125,-454.1015625,-569.3359375,0.012217304763960306,-0.5644394800949663,-0.08552113334772216,-1510,-423,-98,4118,310,100610
12:14:17.685,4564,525.390625,-418.9453125,-599.609375,-0.03665191429188092,-0.7147123286916779,-0.238237442897226,-1529,-433,-106,4118,310,100610
12:14:17.706,4565,449.21875,-300.78125,-745.1171875,0.08796459430051422,-0.8295549934729048,-0.40805797911627434,-1535,-428,-88,4118,310,100610
12:14:17.727,4566,434.5703125,-304.6875,-786.1328125,0.1038470904936626,-0.9016370915802707,-0.6072000467688273,-1541,-428,-75,4118,310,100610
12:14:17.737,4567,421.875,-324.21875,-740.234375,-0.1429424657383356,-1.0201449477906857,-0.7403686686959947,-1534,-418,-74,4118,310,100610
12:14:17.757,4568,391.6015625,-295.8984375,-693.359375,-0.2419026343264141,-1.0763445497049031,-0.8759807515759541,-1556,-416,-82,4118,310,100610
12:14:17.779,4569,349.609375,-252.9296875,-731.4453125,-0.08429940287132612,-1.2021827887736944,-1.0543534011297746,-1571,-419,-76,4118,310,100610
12:14:17.799,4570,333.0078125,-255.859375,-820.3125,0.12950343049797927,-1.2913691135506045,-1.1704177963873974,-1580,-415,-61,4118,310,100610
12:14:17.809,4571,315.4296875,-259.765625,-907.2265625,0.1111774733520388,-1.3891075516622868,-1.1814133706749619,-1575,-403,-64,4118,310,100610
12:14:17.830,4572,260.7421875,-239.2578125,-933.59375,-0.006108652381980153,-1.4746286850100092,-1.103222620185616,-1600,-406,-56,4118,310,100610
12:14:17.850,4573,192.3828125,-201.171875,-940.4296875,0.014660765716752368,-1.5112805993018898,-1.0824532020868831,-1622,-412,-53,4118,310,100610
12:14:17.870,4574,145.5078125,-228.515625,-960.9375,0.21258110289290938,-1.5186109821602662,-1.111774733520388,-1630,-406,-44,4118,310,100610
12:14:17.891,4575,99.609375,-291.9921875,-974.609375,0.4691445029360758,-1.4941763726323456,-1.1765264487693778,-1645,-405,-48,4118,310,100610
12:14:17.901,4576,15.625,-321.2890625,-991.2109375,0.40805797911627434,-1.467298302151633,-1.1789699097221698,-1662,-410,-33,4118,310,100610
12:14:17.922,4577,-87.890625,-327.1484375,-974.609375,0.3078760800517997,-1.4013248564262473,-1.0861183935160714,-1673,-408,-36,4118,310,100610
12:14:17.942,4578,-165.0390625,-172.8515625,-946.2890625,0.22602013813326569,-1.3023646878381687,-0.9224065096790033,-1682,-406,-30,4118,310,100610
12:14:17.963,4579,-213.8671875,-79.1015625,-1001.953125,0.4838052686528282,-1.112996463996784,-0.753807703936351,-1694,-413,-26,4118,310,100610
12:14:17.983,4580,-262.6953125,-146.484375,-1040.0390625,0.7757988525114795,-0.8210028801381327,-0.5216789134211052,-1706,-421,-17,4118,310,100610
12:14:17.993,4581,-266.6015625,-228.515625,-1046.875,0.7794640439406676,-0.4410447019789671,-0.2614503219487506,-1701,-416,-27,4118,310,100610
12:14:18.14,4582,-279.296875,-215.8203125,-1047.8515625,0.555887366760194,-0.039095375244672985,0.007330382858376184,-1709,-430,-22,4118,310,100610
12:14:18.35,4583,-272.4609375,-183.59375,-1033.203125,0.19914206765255302,0.5754350543825305,0.3628539514896212,-1709,-435,-18,4118,310,100610
12:14:18.56,4584,-234.375,-163.0859375,-1001.953125,0.13194689145077132,0.8857545953871224,0.5619960191421741,-1707,-434,-22,4118,310,100610
12:14:18.66,4585,-208.984375,-157.2265625,-983.3984375,0.2150245638457014,1.1239920382843482,0.7660250087003113,-1696,-435,-32,4118,310,100610
12:14:18.87,4586,-175.78125,-173.828125,-967.7734375,0.2956587752878394,1.3280210278424853,0.9346238144429636,-1676,-443,-26,4118,310,100610
12:14:18.107,4587,-134.765625,-203.125,-947.265625,0.24801128670839426,1.5283848259714343,1.0177014868378935,-1669,-442,-32,4118,310,100610
12:14:18.129,4588,-76.171875,-222.65625,-944.3359375,0.07941248096574201,1.7153095888600272,1.0201449477906857,-1647,-442,-31,4118,310,100610
12:14:18.139,4589,-16.6015625,-215.8203125,-942.3828125,-0.08185594191853407,1.8460347498344023,1.0079276430267254,-1638,-443,-40,4118,310,100610
12:14:18.160,4590,83.984375,-216.796875,-915.0390625,-0.197920337176157,1.9327776136585209,1.0323622525546459,-1624,-445,-37,4118,310,100610
12:14:18.181,4591,198.2421875,-216.796875,-888.671875,-0.1942551457469689,1.9743164498559855,1.0567968620825665,-1605,-445,-50,4118,310,100610
12:14:18.201,4592,282.2265625,-311.5234375,-834.9609375,-0.1233947781159991,1.9804251022379658,1.0140362954087057,-1583,-450,-64,4118,310,100610
12:14:18.211,4593,406.25,-389.6484375,-762.6953125,-0.0671951762017817,1.9535470317572532,0.8686503687175778,-1577,-451,-58,4118,310,100610
12:14:18.232,4594,612.3046875,-506.8359375,-693.359375,-0.04520402762665313,1.8411478279288183,0.6853907972581733,-1555,-450,-73,4118,310,100610
12:14:18.252,4595,784.1796875,-566.40625,-631.8359375,-0.08918632477691024,1.6468926821818495,0.4825835381764321,-1528,-451,-80,4118,310,100610
12:14:18.273,4596,875.9765625,-581.0546875,-619.140625,-0.11362093430483088,1.425759465954168,0.2528982086139784,-1538,-456,-92,4118,310,100610
12:14:18.293,4597,952.1484375,-574.21875,-614.2578125,-0.09773843811168245,1.1533135697178531,0.08918632477691024,-1520,-456,-101,4118,310,100610
12:14:18.323,4598,981.4453125,-554.6875,-588.8671875,-0.06841690667817772,0.8405505677604692,-0.03543018381548489,-1511,-458,-85,4118,310,100610
12:14:18.344,4599,972.65625,-542.96875,-581.0546875,-0.01832595714594046,0.5412266010434416,-0.13683381335635544,-1499,-447,-98,4118,310,100610
12:14:18.364,4600,940.4296875,-533.203125,-574.21875,0.03420845333908886,0.1734857276482364,-0.2467895562319982,-1509,-454,-112,4118,310,100610
12:14:18.374,4601,858.3984375,-484.375,-601.5625,0.08063421144213802,-0.014660765716752368,-0.28099800957108706,-1508,-451,-104,4118,310,100610
12:14:18.395,4602,791.015625,-424.8046875,-655.2734375,0.15882496193148402,-0.15760323145508798,-0.27611108766550296,-1506,-453,-98,4124,310,100604
12:14:18.415,4603,730.46875,-383.7890625,-683.59375,0.2162462943220974,-0.23701571242082997,-0.26022859147235455,-1507,-452,-106,4124,310,100604
12:14:18.435,4604,681.640625,-381.8359375,-684.5703125,0.238237442897226,-0.2700024352835228,-0.24801128670839426,-1511,-454,-116,4124,310,100604
12:14:18.456,4605,632.8125,-389.6484375,-695.3125,0.19303341527057283,-0.2822197400474831,-0.2345722514680379,-1513,-449,-100,4124,310,100604
12:14:18.466,4606,588.8671875,-337.890625,-735.3515625,0.14049900478554353,-0.2846632010002752,-0.2296853295624538,-1517,-452,-106,4124,310,100604
12:14:18.486,4607,541.9921875,-307.6171875,-773.4375,0.1478293876439197,-0.2712241657599188,-0.20647245051092922,-1525,-456,-106,4124,310,100604
12:14:18.506,4608,508.7890625,-305.6640625,-791.9921875,0.19181168479417682,-0.2345722514680379,-0.18325957145940464,-1520,-452,-104,4124,310,100604
12:14:18.527,4609,468.75,-305.6640625,-821.2890625,0.2345722514680379,-0.18570303241219668,-0.1710422666954443,-1509,-445,-86,4124,310,100604
12:14:18.547,4610,416.015625,-318.359375,-842.7734375,0.24923301718479027,-0.11362093430483088,-0.16493361431346415,-1527,-455,-95,4124,310,100604
12:14:18.557,4611,375.9765625,-317.3828125,-878.90625,0.2467895562319982,-0.024434609527920613,-0.1710422666954443,-1525,-457,-86,4124,310,100604
12:14:18.597,4612,363.28125,-336.9140625,-914.0625,0.2687807048071268,0.05497787143782139,-0.18325957145940464,-1526,-460,-101,4124,310,100604
12:14:18.618,4613,351.5625,-370.1171875,-933.59375,0.3103195410045918,0.14172073526193957,-0.18570303241219668,-1521,-461,-108,4124,310,100604
12:14:18.628,4614,340.8203125,-402.34375,-930.6640625,0.36041049053682905,0.2235766771804736,-0.20525072003453318,-1520,-464,-102,4124,310,100604
12:14:18.649,4615,335.9375,-431.640625,-889.6484375,0.40194932673429407,0.3066543495754037,-0.2516764781375823,-1515,-464,-99,4124,310,100604
12:14:18.670,4616,371.09375,-481.4453125,-854.4921875,0.4214970143566306,0.4043927876870862,-0.3384193419617005,-1510,-462,-98,4124,310,100604
12:14:18.690,4617,414.0625,-511.71875,-825.1953125,0.437379510549779,0.43371431912059094,-0.39461894387591795,-1513,-466,-102,4124,310,100604
12:14:18.710,4618,466.796875,-530.2734375,-782.2265625,0.4813618077000361,0.41905355340383854,-0.47403142484165994,-1510,-469,-95,4124,310,100604
12:14:18.741,4619,517.578125,-537.109375,-729.4921875,0.55100044485461,0.3897320219703338,-0.5693264020005504,-1508,-464,-108,4124,310,100604
12:14:18.761,4620,560.546875,-528.3203125,-693.359375,0.5852088981936987,0.33108895910332437,-0.7024950239277178,-1500,-468,-105,4124,310,100604
12:14:18.782,4621,610.3515625,-548.828125,-654.296875,0.6084217772452234,0.24068090385001806,-0.8356636458548851,-1501,-472,-104,4124,310,100604
12:14:18.792,4622,657.2265625,-538.0859375,-637.6953125,0.5998696639104512,0.16004669240788005,-0.9590584239708841,-1498,-460,-106,4124,310,100604
12:14:18.813,4623,707.03125,-525.390625,-599.609375,0.594982742004867,0.07086036763096978,-1.0787880106576953,-1493,-457,-106,4124,310,100604
12:14:18.834,4624,750.0,-485.3515625,-571.2890625,0.6010913943868472,-0.01832595714594046,-1.1863002925805461,-1499,-461,-111,4124,310,100604
12:14:18.854,4625,804.6875,-478.515625,-539.0625,0.6072000467688273,-0.14416419621473164,-1.3267992973660896,-1499,-458,-108,4124,310,100604
12:14:18.874,4626,860.3515625,-484.375,-487.3046875,0.5400048705670456,-0.23335052099164189,-1.4025465869026434,-1481,-451,-109,4124,310,100604
12:14:18.885,4627,898.4375,-477.5390625,-467.7734375,0.43371431912059094,-0.31642819338657197,-1.4770721459628011,-1495,-449,-109,4124,310,100604
12:14:18.905,4628,944.3359375,-424.8046875,-458.984375,0.3445279943436807,-0.395840674352314,-1.546710783117375,-1499,-449,-110,4124,310,100604
12:14:18.926,4629,962.890625,-395.5078125,-469.7265625,0.2700024352835228,-0.4923573819876005,-1.6041321155079884,-1505,-439,-99,4124,310,100604
12:14:18.948,4630,956.0546875,-366.2109375,-499.0234375,0.16249015336067207,-0.5815437067645106,-1.6395622993234733,-1508,-437,-99,4124,310,100604
12:14:18.958,4631,950.1953125,-356.4453125,-494.140625,0.013439035240356337,-0.6695083010650249,-1.6493361431346418,-1515,-431,-93,4124,310,100604
12:14:18.978,4632,935.546875,-345.703125,-491.2109375,-0.1551597705022959,-0.7611380867947273,-1.6554447955166216,-1522,-419,-93,4124,310,100604
12:14:19.19,4633,915.0390625,-292.96875,-529.296875,-0.16249015336067207,-0.9053022830094588,-1.6505578736110376,-1525,-410,-82,4124,310,100604
12:14:19.39,4634,850.5859375,-222.65625,-592.7734375,-0.10262536001726659,-0.9749409201640327,-1.6542230650402259,-1532,-403,-78,4124,310,100604
12:14:19.49,4635,834.9609375,-277.34375,-613.28125,-0.2186897552748895,-1.0812314716104872,-1.6835445964737306,-1541,-398,-77,4124,310,100604
12:14:19.70,4636,793.9453125,-318.359375,-628.90625,-0.558330827712986,-1.1789699097221698,-1.7250834326711952,-1546,-389,-68,4124,310,100604
12:14:19.90,4637,728.515625,-198.2421875,-687.5,-0.675616953447005,-1.2290608592544068,-1.8032741831605414,-1544,-373,-62,4124,310,100604
12:14:19.111,4638,660.15625,-19.53125,-783.203125,-0.5363396791378575,-1.233947781159991,-1.8887953165082636,-1577,-361,-57,4124,310,100604
12:14:19.131,4639,636.71875,1.953125,-827.1484375,-0.42516220578581876,-1.2522737383059315,-1.8961256993666398,-1584,-351,-56,4124,310,100604
12:14:19.161,4640,585.9375,-12.6953125,-823.2421875,-0.44837508483734323,-1.2547171992587234,-1.8716910898387191,-1601,-348,-46,4124,310,100604
12:14:19.181,4641,543.9453125,30.2734375,-830.078125,-0.37629298672997746,-1.3011429573617728,-1.8130480269717095,-1622,-330,-43,4124,310,100604
12:14:19.202,4642,516.6015625,84.9609375,-858.3984375,-0.2700024352835228,-1.3720033249927428,-1.8680258984095313,-1637,-328,-39,4124,310,100604
12:14:19.212,4643,456.0546875,158.203125,-908.203125,-0.41783182292744253,-1.4184290830957917,-1.9083430041306,-1646,-324,-44,4124,310,100604
12:14:19.232,4644,371.09375,122.0703125,-925.78125,-0.5729915934297385,-1.478293876439197,-1.9181168479417683,-1656,-311,-37,4124,310,100604
12:14:19.253,4645,270.5078125,144.53125,-931.640625,-0.6829473363053812,-1.4953981031087415,-1.8765780117443032,-1688,-300,-40,4124,310,100604
12:14:19.273,4646,199.21875,189.453125,-911.1328125,-0.5766567848589266,-1.4929546421559494,-1.82526533173567,-1704,-298,-38,4124,310,100604
12:14:19.294,4647,113.28125,206.0546875,-897.4609375,-0.4324925886441948,-1.4501940754820886,-1.7299703545767793,-1717,-296,-42,4124,310,100604
12:14:19.365,4648,4.8828125,224.609375,-872.0703125,-0.41050144006906636,-1.3793337078511185,-1.5748105840744835,-1739,-289,-27,4124,310,100604
12:14:19.386,4649,-91.796875,192.3828125,-832.03125,-0.515570261039125,-1.2596041211643076,-1.1679743354346053,-1749,-284,-42,4124,310,100604
12:14:19.396,4650,-146.484375,260.7421875,-773.4375,-0.6096435077216195,-0.910189204915043,-0.8075638448977764,-1763,-280,-47,4124,310,100604
12:14:19.416,4651,-168.9453125,330.078125,-844.7265625,-0.2223549467040776,-0.6230825429619757,-0.39461894387591795,-1767,-272,-39,4124,310,100604
12:14:19.436,4652,-155.2734375,406.25,-957.03125,0.17715091907742447,-0.2675589743307307,0.04031710572106901,-1776,-275,-38,4124,310,100605
12:14:19.457,4653,-138.671875,332.03125,-993.1640625,0.12950343049797927,0.11362093430483088,0.4935791124639964,-1779,-275,-35,4124,310,100605
12:14:19.467,4654,-83.984375,275.390625,-1002.9296875,-0.2101376419401173,0.44959681531373935,0.9480628496833199,-1768,-277,-34,4124,310,100605
12:14:19.487,4655,-10.7421875,301.7578125,-1044.921875,-0.3298672286269283,0.6939429105929455,1.2840387306922283,-1741,-268,-41,4124,310,100605
12:14:19.508,4656,38.0859375,371.09375,-1082.03125,-0.024434609527920613,0.8710938296703699,1.5234979040658503,-1747,-273,-44,4124,310,100605
12:14:19.529,4657,70.3125,347.65625,-1096.6796875,0.4557054676957195,1.0103711039795176,1.6713272917097701,-1727,-276,-48,4124,310,100605
12:14:19.549,4658,77.1484375,270.5078125,-1095.703125,0.516791991515521,1.2351695116363872,1.8240436012592738,-1718,-281,-39,4124,310,100605
12:14:19.559,4659,126.953125,202.1484375,-1064.453125,0.2944370448114434,1.3781119773747228,1.9535470317572532,-1703,-284,-43,4124,310,100605
12:14:19.580,4660,209.9609375,208.0078125,-1081.0546875,0.41905355340383854,1.4599679192932566,2.0341812431993915,-1680,-296,-41,4124,310,100605
12:14:19.601,4661,264.6484375,215.8203125,-1096.6796875,0.7794640439406676,1.5063936773963058,2.0891591146372126,-1672,-296,-39,4124,310,100605
12:14:19.622,4662,268.5546875,192.3828125,-1046.875,0.8539896030008255,1.589471349791236,2.146580447027826,-1648,-309,-46,4124,310,100605
12:14:19.632,4663,324.21875,83.984375,-970.703125,0.6841690667817772,1.673770752662562,2.1502456384570143,-1623,-324,-56,4124,310,100605
12:14:19.653,4664,392.578125,28.3203125,-934.5703125,0.516791991515521,1.714087858383631,2.199114857512855,-1610,-331,-58,4124,310,100605
12:14:19.673,4665,438.4765625,41.9921875,-879.8828125,0.5057964172279568,1.7617353469630763,2.249205807045093,-1586,-340,-62,4124,310,100605
12:14:19.693,4666,475.5859375,-9.765625,-735.3515625,0.38362336958835364,1.7751743822034327,2.1636846736973703,-1572,-359,-66,4124,310,100605
12:14:19.713,4667,560.546875,-153.3203125,-595.703125,0.08429940287132612,1.700648823143275,2.061059313680104,-1562,-360,-68,4124,310,100605
12:14:19.724,4668,686.5234375,-292.96875,-508.7890625,-0.10018189906447451,1.4807373373919894,1.9669860669976096,-1544,-369,-74,4124,310,100605
12:14:19.744,4669,731.4453125,-347.65625,-482.421875,-0.1392772743091475,1.1801916401985657,1.863138976503947,-1524,-377,-82,4124,310,100605
12:14:19.765,4670,771.484375,-394.53125,-493.1640625,0.013439035240356337,0.8869763258635184,1.711644397430839,-1518,-383,-94,4124,310,100605
12:14:19.785,4671,861.328125,-483.3984375,-502.9296875,0.20525072003453318,0.6499606134426883,1.4856242592975735,-1518,-391,-82,4124,310,100605
12:14:19.805,4672,933.59375,-615.234375,-492.1875,0.1233947781159991,0.4838052686528282,1.2363912421127832,-1492,-396,-92,4124,310,100605
12:14:19.815,4673,964.84375,-671.875,-527.34375,-0.2541199390903744,0.35552356863124496,0.993266877309973,-1506,-405,-97,4124,310,100605
12:14:19.836,4674,958.0078125,-582.03125,-614.2578125,-0.6365215782023321,0.15638150097869194,0.6426302305843121,-1506,-406,-87,4124,310,100605
12:14:19.857,4675,917.96875,-497.0703125,-706.0546875,-0.6255260039147678,0.0158824961931484,0.48747046008201633,-1506,-398,-95,4124,310,100605
12:14:19.877,4676,872.0703125,-461.9140625,-730.46875,-0.519235452468313,-0.07330382858376185,0.3897320219703338,-1504,-408,-106,4124,310,100605
12:14:19.887,4677,821.2890625,-423.828125,-707.03125,-0.3872885610175418,-0.10629055144645469,0.3420845333908886,-1506,-403,-105,4124,310,100605
12:14:19.908,4678,763.671875,-374.0234375,-719.7265625,-0.2944370448114434,-0.08918632477691024,0.3298672286269283,-1505,-402,-95,4124,310,100605
12:14:19.929,4679,730.46875,-320.3125,-760.7421875,-0.21746802479849348,-0.07452555906015788,0.29688050576423547,-1495,-397,-100,4124,310,100605
12:14:19.949,4680,708.984375,-287.109375,-786.1328125,-0.1869247628885927,-0.06597344572538566,0.2822197400474831,-1501,-403,-102,4124,310,100605
12:14:19.970,4681,692.3828125,-273.4375,-781.25,-0.16249015336067207,-0.05619960191421742,0.26267205242514663,-1506,-400,-100,4124,310,100605
12:14:20.1,4682,667.96875,-253.90625,-761.71875,-0.1270599695451872,-0.048869219055841226,0.2700024352835228,-1503,-397,-93,4124,310,100605
12:14:20.21,4683,643.5546875,-256.8359375,-731.4453125,-0.12461650859239513,-0.03665191429188092,0.28344147052387914,-1494,-398,-103,4124,310,100605
12:14:20.42,4684,620.1171875,-232.421875,-749.0234375,-0.09040805525330627,-0.009773843811168246,0.3127630019573839,-1506,-402,-91,4124,310,100605
12:14:20.53,4685,616.2109375,-183.59375,-806.640625,-0.0317649923862968,0.03054326190990077,0.3469714552964728,-1507,-408,-96,4124,310,100605
12:14:20.73,4686,626.953125,-206.0546875,-815.4296875,-0.08185594191853407,0.0952949771588904,0.40805797911627434,-1501,-405,-92,4124,310,100605
12:14:20.93,4687,652.34375,-242.1875,-802.734375,-0.23701571242082997,0.1893682238413848,0.5277875658030853,-1503,-409,-107,4124,310,100605
12:14:20.114,4688,717.7734375,-244.140625,-833.0078125,-0.2553416695667704,0.3298672286269283,0.6291911953439558,-1497,-406,-92,4124,310,100605
12:14:20.134,4689,798.828125,-229.4921875,-888.671875,-0.10140362954087055,0.45814892864851153,0.7428121296487867,-1497,-407,-99,4124,310,100605
12:14:20.144,4690,859.375,-282.2265625,-893.5546875,0.09162978572970232,0.5656612105713622,0.8234463410909247,-1485,-409,-113,4124,310,100605
12:14:20.165,4691,921.875,-357.421875,-867.1875,0.1710422666954443,0.7098254067860938,0.8967501696746865,-1473,-411,-115,4124,310,100605
12:14:20.186,4692,952.1484375,-404.296875,-829.1015625,0.1942551457469689,0.7904596182282319,0.9236282401553992,-1482,-421,-110,4124,310,100605
12:14:20.206,4693,967.7734375,-449.21875,-778.3203125,0.2700024352835228,0.8417722982368653,0.910189204915043,-1472,-428,-113,4124,310,100605
12:14:20.216,4694,967.7734375,-500.0,-714.84375,0.4214970143566306,0.8442157591896573,0.8784242125287461,-1468,-435,-121,4124,310,100605
12:14:20.237,4695,955.078125,-545.8984375,-638.671875,0.6120869686744114,0.8002334620394002,0.7770205829878756,-1469,-440,-123,4124,310,100605
12:14:20.279,4696,936.5234375,-583.0078125,-591.796875,0.7440338601251827,0.7171557896444701,0.6548475353482726,-1462,-450,-135,4124,310,100605
12:14:20.289,4697,904.296875,-587.890625,-576.171875,0.7098254067860938,0.6096435077216195,0.5045746867515608,-1458,-459,-135,4124,310,100605
12:14:20.310,4698,883.7890625,-587.890625,-562.5,0.55710909723659,0.46670104198328377,0.33597588100890846,-1460,-464,-130,4124,310,100605
12:14:20.331,4699,852.5390625,-576.171875,-541.9921875,0.3005456971934236,0.24923301718479027,0.08185594191853407,-1454,-470,-128,4124,310,100605
12:14:20.351,4700,815.4296875,-548.828125,-518.5546875,0.1710422666954443,0.0952949771588904,-0.0989601685880785,-1450,-469,-142,4124,310,100605
12:14:20.371,4701,764.6484375,-519.53125,-487.3046875,0.07208209810736582,-0.052534410485029326,-0.2748893571891069,-1453,-476,-133,4124,310,100605
12:14:20.382,4702,709.9609375,-461.9140625,-480.46875,0.09773843811168245,-0.17837264955382048,-0.45081854579013536,-1452,-474,-146,4124,310,100605
12:14:20.423,4703,675.78125,-415.0390625,-478.515625,0.16371188383706814,-0.31520646291017596,-0.5766567848589266,-1454,-466,-134,4124,310,100605
12:14:20.444,4704,661.1328125,-395.5078125,-478.515625,0.16371188383706814,-0.4642575810304917,-0.675616953447005,-1441,-464,-130,4124,310,100605
12:14:20.455,4705,652.34375,-396.484375,-487.3046875,0.06841690667817772,-0.6072000467688273,-0.7440338601251827,-1461,-457,-132,4124,310,100605
12:14:20.475,4706,631.8359375,-350.5859375,-504.8828125,-0.019547687622336492,-0.7403686686959947,-0.7977900010866079,-1471,-456,-129,4124,310,100605
12:14:20.496,4707,609.375,-326.171875,-518.5546875,-0.026878070480712675,-0.8723155601467659,-0.8698720991939739,-1455,-448,-130,4124,310,100605
12:14:20.517,4708,603.515625,-315.4296875,-527.34375,0.01832595714594046,-1.0494664792241903,-0.9456193887305279,-1473,-450,-122,4124,310,100605
12:14:20.527,4709,597.65625,-300.78125,-535.15625,0.0830776723949301,-1.160643952576229,-1.0152580258851016,-1489,-440,-116,4124,310,100605
12:14:20.548,4710,574.21875,-291.015625,-555.6640625,0.10995574287564278,-1.269377964975476,-1.0775662801812993,-1497,-437,-105,4124,310,100605
12:14:20.569,4711,533.203125,-300.78125,-589.84375,0.0952949771588904,-1.3610077507051783,-1.1630874135290212,-1493,-434,-110,4124,310,100605
12:14:20.589,4712,507.8125,-314.453125,-617.1875,-0.026878070480712675,-1.44042023167092,-1.233947781159991,-1517,-429,-96,4124,310,100605
12:14:20.610,4713,452.1484375,-294.921875,-650.390625,-0.1233947781159991,-1.512502329778286,-1.2938125745033966,-1528,-423,-72,4124,310,100605
12:14:20.620,4714,384.765625,-270.5078125,-688.4765625,-0.1392772743091475,-1.5320500174006226,-1.3597860202287821,-1525,-421,-72,4124,310,100605
12:14:20.641,4715,338.8671875,-211.9140625,-699.21875,-0.07574728953655392,-1.5589280878813352,-1.425759465954168,-1553,-410,-60,4124,310,100605
12:14:20.661,4716,246.09375,-210.9375,-763.671875,-0.05742133239061345,-1.5173892516838703,-1.3658946726107624,-1566,-413,-58,4124,310,100605
12:14:20.692,4717,153.3203125,-172.8515625,-836.9140625,-0.07452555906015788,-1.4098769697610194,-1.2266173983016149,-1570,-408,-62,4124,310,100605
12:14:20.713,4718,127.9296875,-181.640625,-855.46875,-0.22724186860966175,-1.238834703065575,-1.0213666782670816,-1589,-401,-43,4124,310,100605
12:14:20.733,4719,73.2421875,-193.359375,-866.2109375,-0.3897320219703338,-1.0042624515975374,-0.7929030791810241,-1602,-397,-42,4124,310,100605
12:14:20.754,4720,8.7890625,-152.34375,-899.4140625,-0.3799581781591656,-0.6817256058289851,-0.5021312257987687,-1603,-392,-37,4124,310,100605
12:14:20.764,4721,-19.53125,-81.0546875,-966.796875,-0.278554548618295,-0.28344147052387914,-0.18325957145940464,-1602,-373,-36,4124,310,100605
12:14:20.784,4722,-21.484375,-39.0625,-1022.4609375,-0.12950343049797927,0.10873401239924674,0.15393804002589986,-1608,-387,-38,4124,310,100605
12:14:20.805,4723,2.9296875,-69.3359375,-997.0703125,-0.05375614096142535,0.44837508483734323,0.5119050696099369,-1602,-388,-40,4124,310,100605
12:14:20.846,4724,43.9453125,-85.9375,-975.5859375,0.01710422666954443,0.8796459430051422,0.9822713030224087,-1601,-387,-55,4124,310,100605
12:14:20.856,4725,86.9140625,-78.125,-982.421875,0.12461650859239513,1.1337658820955165,1.1557570306706453,-1585,-395,-53,4124,310,100605
12:14:20.876,4726,98.6328125,-97.65625,-946.2890625,0.15760323145508798,1.3573425592759902,1.2290608592544068,-1579,-397,-48,4124,310,100605
12:14:20.918,4727,117.1875,-144.53125,-889.6484375,0.048869219055841226,1.5149457907310784,1.2779300783102483,-1561,-403,-57,4124,310,100605
12:14:20.928,4728,190.4296875,-180.6640625,-849.609375,-0.14172073526193957,1.5992451936024044,1.312138531649337,-1543,-408,-62,4124,310,100605
12:14:20.948,4729,272.4609375,-181.640625,-833.984375,-0.23701571242082997,1.6420057602762654,1.342681793559238,-1540,-411,-65,4124,310,100605
12:14:20.968,4730,310.546875,-159.1796875,-813.4765625,-0.2235766771804736,1.6713272917097701,1.3280210278424853,-1530,-414,-80,4124,310,100605
12:14:20.989,4731,330.078125,-185.546875,-747.0703125,-0.18814649336498873,1.6920967098085025,1.27426488688106,-1512,-416,-84,4124,310,100605
12:14:21.9,4732,506.8359375,-279.296875,-679.6875,-0.22602013813326569,1.6603317174222059,1.196074136391714,-1498,-417,-100,4124,310,100605
12:14:21.20,4733,652.34375,-333.0078125,-643.5546875,-0.2504547476611863,1.5369369393062067,1.11421819447318,-1488,-423,-106,4124,310,100605
12:14:21.40,4734,774.4140625,-376.953125,-593.75,-0.15393804002589986,1.3891075516622868,0.9786061115932208,-1479,-429,-103,4124,310,100605
12:14:21.60,4735,942.3828125,-474.609375,-558.59375,-0.11850785621041499,1.1691960659110014,0.8258898020437169,-1471,-427,-115,4124,310,100605
12:14:21.81,4736,1056.640625,-522.4609375,-553.7109375,-0.09651670763528641,0.9480628496833199,0.6511823439190844,-1466,-436,-115,4124,310,100605
12:14:21.101,4737,1107.421875,-530.2734375,-556.640625,-0.029321531433504737,0.7171557896444701,0.49113565151120436,-1460,-436,-135,4124,310,100605
12:14:21.112,4738,1151.3671875,-556.640625,-523.4375,-0.0024434609527920616,0.476474885794452,0.31887165433936404,-1451,-439,-140,4124,310,100605
12:14:21.132,4739,1133.7890625,-580.078125,-540.0390625,-0.08429940287132612,0.2883283924294633,0.16982053621904827,-1453,-439,-139,4124,310,100605
12:14:21.153,4740,1059.5703125,-526.3671875,-562.5,-0.17715091907742447,0.1392772743091475,0.10262536001726659,-1456,-441,-142,4124,310,100605
12:14:21.173,4741,1006.8359375,-478.515625,-561.5234375,-0.029321531433504737,-0.03787364476827696,0.006108652381980153,-1456,-441,-144,4124,310,100605
12:14:21.183,4742,939.453125,-415.0390625,-581.0546875,0.1343903524035634,-0.0952949771588904,-0.026878070480712675,-1450,-435,-144,4124,310,100605
12:14:21.204,4743,875.0,-397.4609375,-583.0078125,0.2235766771804736,-0.14416419621473164,-0.06475171524898964,-1455,-443,-144,4124,310,100605
12:14:21.224,4744,822.265625,-423.828125,-587.890625,0.1551597705022959,-0.16493361431346415,-0.06963863715457375,-1456,-442,-130,4124,310,100605
12:14:21.265,4745,782.2265625,-383.7890625,-634.765625,0.07086036763096978,-0.17592918860102844,-0.08918632477691024,-1453,-444,-139,4124,310,100605
12:14:21.275,4746,756.8359375,-365.234375,-635.7421875,0.020769418098732523,-0.1905899543177808,-0.09407324668249437,-1458,-445,-137,4124,310,100605
12:14:21.296,4747,740.234375,-351.5625,-627.9296875,0.0317649923862968,-0.19669860669976097,-0.09162978572970232,-1459,-446,-134,4124,310,100605
12:14:21.316,4748,727.5390625,-329.1015625,-639.6484375,0.11239920382843484,-0.20525072003453318,-0.07941248096574201,-1461,-441,-135,4124,310,100605
12:14:21.337,4749,708.0078125,-329.1015625,-645.5078125,0.20036379812894903,-0.2113593724165133,-0.06475171524898964,-1452,-439,-134,4124,310,100605
12:14:21.348,4750,696.2890625,-338.8671875,-654.296875,0.17837264955382048,-0.1905899543177808,-0.052534410485029326,-1459,-443,-138,4124,310,100605
12:14:21.368,4751,672.8515625,-327.1484375,-666.015625,0.14538592669112765,-0.18081611050661253,-0.04031710572106901,-1463,-444,-133,4124,310,100605
12:14:21.388,4752,647.4609375,-315.4296875,-665.0390625,0.13683381335635544,-0.1429424657383356,-0.048869219055841226,-1462,-443,-127,4124,310,100606
12:14:21.409,4753,621.09375,-304.6875,-655.2734375,0.10873401239924674,-0.09773843811168245,-0.04398229715025711,-1467,-450,-130,4124,310,100606
12:14:21.430,4754,609.375,-289.0625,-659.1796875,0.0476474885794452,-0.05619960191421742,-0.03543018381548489,-1459,-441,-123,4124,310,100606
12:14:21.440,4755,603.515625,-277.34375,-670.8984375,0.004886921905584123,0.008552113334772215,-0.008552113334772215,-1468,-442,-122,4124,310,100606
12:14:21.460,4756,594.7265625,-266.6015625,-663.0859375,0.019547687622336492,0.04642575810304917,0.024434609527920613,-1456,-442,-119,4124,310,100606
12:14:21.481,4757,578.125,-269.53125,-642.578125,0.03298672286269283,0.08918632477691024,0.0867428638241182,-1466,-448,-127,4124,310,100606
12:14:21.501,4758,565.4296875,-273.4375,-625.9765625,-0.012217304763960306,0.13316862192716736,0.11606439525762292,-1463,-453,-127,4124,310,100606
12:14:21.532,4759,562.5,-274.4140625,-613.28125,-0.0671951762017817,0.1343903524035634,0.14416419621473164,-1462,-452,-137,4124,310,100606
12:14:21.553,4760,559.5703125,-283.203125,-584.9609375,-0.15393804002589986,0.11972958668681102,0.16982053621904827,-1447,-445,-126,4124,310,100606
12:14:21.574,4761,561.5234375,-281.25,-548.828125,-0.2553416695667704,0.09651670763528641,0.16249015336067207,-1460,-447,-133,4124,310,100606
12:14:21.594,4762,557.6171875,-234.375,-528.3203125,-0.3420845333908886,0.07819075048934597,0.13194689145077132,-1462,-449,-132,4124,310,100606
12:14:21.604,4763,556.640625,-227.5390625,-529.296875,-0.3628539514896212,0.06597344572538566,0.08185594191853407,-1458,-449,-130,4124,310,100606
12:14:21.625,4764,584.9609375,-251.953125,-519.53125,-0.3799581781591656,0.025656340004316647,0.07208209810736582,-1464,-446,-125,4124,310,100606
12:14:21.645,4765,605.46875,-269.53125,-502.9296875,-0.4972443038931845,-0.029321531433504737,0.12095131716320705,-1456,-444,-125,4124,310,100606
12:14:21.686,4766,632.8125,-293.9453125,-506.8359375,-0.63407811724954,-0.1343903524035634,0.197920337176157,-1462,-446,-127,4124,310,100606
12:14:21.696,4767,658.203125,-307.6171875,-512.6953125,-0.6267477343911638,-0.2028072590817411,0.2431243648028101,-1462,-441,-134,4124,310,100606
12:14:21.717,4768,688.4765625,-357.421875,-514.6484375,-0.5839871677173026,-0.2919935838586513,0.2577851305195625,-1470,-437,-127,4124,310,100606
12:14:21.738,4769,742.1875,-422.8515625,-517.578125,-0.5998696639104512,-0.4288273972150068,0.3078760800517997,-1469,-433,-130,4124,310,100606
12:14:21.758,4770,825.1953125,-466.796875,-556.640625,-0.6243042734383717,-0.5778785153353226,0.31887165433936404,-1464,-432,-113,4124,310,100606
12:14:21.769,4771,887.6953125,-498.046875,-583.984375,-0.6230825429619757,-0.7098254067860938,0.27977627909469105,-1482,-432,-120,4124,310,100606
12:14:21.789,4772,922.8515625,-541.015625,-586.9140625,-0.5986479334340551,-0.8258898020437169,0.17226399717184035,-1486,-424,-114,4124,310,100606
12:14:21.810,4773,995.1171875,-589.84375,-624.0234375,-0.5619960191421741,-0.9541715020653,0.029321531433504737,-1493,-426,-105,4124,310,100606
12:14:21.831,4774,1038.0859375,-593.75,-677.734375,-0.5241223743738972,-1.1325441516191206,-0.2528982086139784,-1499,-422,-96,4124,310,100606
12:14:21.851,4775,1024.4140625,-599.609375,-700.1953125,-0.5619960191421741,-1.2070697106792785,-0.437379510549779,-1510,-412,-102,4124,310,100606
12:14:21.862,4776,946.2890625,-574.21875,-730.46875,-0.6047565858160352,-1.2974777659325847,-0.6279694648675598,-1513,-411,-91,4124,310,100606
12:14:21.882,4777,871.09375,-534.1796875,-756.8359375,-0.6585127267774605,-1.3487904459412179,-0.7990117315630041,-1525,-401,-88,4124,310,100606
12:14:21.902,4778,819.3359375,-479.4921875,-772.4609375,-0.7428121296487867,-1.4184290830957917,-0.9443976582541318,-1546,-395,-86,4124,310,100606
12:14:21.923,4779,745.1171875,-383.7890625,-792.96875,-0.7684684696531033,-1.4831807983447813,-1.0800097411340912,-1547,-382,-74,4124,310,100606
12:14:21.953,4780,675.78125,-307.6171875,-816.40625,-0.6414085001079162,-1.5381586697826028,-1.2156218240140506,-1567,-371,-59,4124,310,100606
12:14:21.974,4781,608.3984375,-232.421875,-876.953125,-0.41050144006906636,-1.6163494202719488,-1.3292427583188815,-1582,-367,-65,4124,310,100606
12:14:21.994,4782,574.21875,-236.328125,-893.5546875,-0.2675589743307307,-1.7275268936239874,-1.4428636926237122,-1596,-366,-69,4124,310,100606
12:14:22.15,4783,480.46875,-236.328125,-899.4140625,-0.34330626386728463,-1.8154914879245019,-1.5112805993018898,-1611,-355,-52,4124,310,100606
12:14:22.25,4784,401.3671875,-208.0078125,-898.4375,-0.45081854579013536,-1.8460347498344023,-1.5369369393062067,-1623,-342,-51,4124,310,100606
12:14:22.46,4785,309.5703125,-160.15625,-962.890625,-0.4166100924510465,-1.8130480269717095,-1.6273449945595129,-1645,-336,-40,4124,310,100606
12:14:22.66,4786,182.6171875,-108.3984375,-1071.2890625,-0.40072759625789806,-1.7275268936239874,-1.740965928864344,-1673,-332,-38,4124,310,100606
12:14:22.98,4787,42.96875,-19.53125,-1154.296875,-0.4398229715025711,-1.5625932793105233,-1.8118262964953138,-1694,-331,-40,4124,310,100606
12:14:22.118,4788,-94.7265625,71.2890625,-1216.796875,-0.5717698629533424,-1.423316005001376,-1.8533651326927787,-1692,-317,-38,4124,310,100606
12:14:22.138,4789,-222.65625,138.671875,-1204.1015625,-0.8173376887089446,-1.2779300783102483,-1.8154914879245019,-1727,-314,-28,4124,310,100606
12:14:22.159,4790,-342.7734375,193.359375,-1201.171875,-0.9578366934944882,-1.0897835849452593,-1.6346753774178893,-1741,-305,-33,4124,310,100606
12:14:22.180,4791,-420.8984375,257.8125,-1200.1953125,-0.6719517620178169,-0.6633996486830448,-1.0653489754173389,-1743,-298,-35,4124,310,100606
12:14:22.231,4792,-432.6171875,312.5,-1188.4765625,-0.24556782575560218,-0.278554548618295,-0.5852088981936987,-1754,-293,-45,4124,310,100606
12:14:22.251,4793,-431.640625,293.9453125,-1202.1484375,0.14416419621473164,0.15149457907310784,-0.10262536001726659,-1754,-295,-44,4124,310,100606
12:14:22.271,4794,-440.4296875,229.4921875,-1152.34375,0.3042108886226117,0.5986479334340551,0.3640756819660172,-1757,-297,-41,4124,310,100606
12:14:22.281,4795,-379.8828125,196.2890625,-1061.5234375,0.2883283924294633,0.9602801544472802,0.791681348704628,-1742,-298,-37,4124,310,100606
12:14:22.302,4796,-289.0625,197.265625,-1029.296875,0.32375857624494814,1.2107349021084666,1.106887811614804,-1729,-301,-39,4124,310,100606
12:14:22.323,4797,-226.5625,171.875,-1021.484375,0.5436700619962337,1.3842206297567028,1.3231341059369013,-1721,-305,-46,4124,310,100606
12:14:22.344,4798,-177.734375,90.8203125,-1000.0,0.7977900010866079,1.5198327126366624,1.4685200326280292,-1690,-307,-47,4124,310,100606
12:14:22.354,4799,-97.65625,23.4375,-958.984375,0.8906415172927065,1.6713272917097701,1.6322319164650974,-1686,-327,-55,4124,310,100606
12:14:22.374,4800,62.5,-57.6171875,-929.6875,0.8038986534685881,1.7201965107656112,1.6725490221861663,-1671,-331,-43,4124,310,100606
12:14:22.395,4801,190.4296875,-116.2109375,-917.96875,0.6633996486830448,1.7153095888600272,1.6481144126582457,-1646,-341,-51,4124,310,100606
12:14:22.415,4802,333.984375,-200.1953125,-875.9765625,0.594982742004867,1.666440369804186,1.5723671231216916,-1630,-347,-56,4130,310,100607
12:14:22.425,4803,529.296875,-279.296875,-807.6171875,0.5106833391335408,1.5687019316925037,1.4538592669112766,-1615,-353,-57,4130,310,100607
12:14:22.446,4804,691.40625,-353.515625,-778.3203125,0.4434881629317592,1.4049900478554356,1.2889256525978126,-1594,-362,-49,4130,310,100607
12:14:22.466,4805,786.1328125,-383.7890625,-774.4140625,0.395840674352314,1.2461650859239515,1.1007791592328238,-1571,-365,-55,4130,310,100607
12:14:22.487,4806,820.3125,-400.390625,-762.6953125,0.38484510006474965,1.0971139678036357,0.8820894039579342,-1568,-376,-56,4130,310,100607
12:14:22.507,4807,875.9765625,-434.5703125,-734.375,0.3139847324337799,0.8258898020437169,0.5876523591464908,-1568,-381,-59,4130,310,100607
12:14:22.517,4808,879.8828125,-416.015625,-703.125,0.197920337176157,0.6450736915371041,0.4276056667386108,-1559,-388,-76,4130,310,100607
12:14:22.538,4809,823.2421875,-345.703125,-708.0078125,0.12583823906879116,0.4838052686528282,0.2858849314766712,-1550,-386,-72,4130,310,100607
12:14:22.558,4810,753.90625,-310.546875,-717.7734375,0.1502728485967118,0.3445279943436807,0.15638150097869194,-1554,-387,-71,4130,310,100607
12:14:22.579,4811,694.3359375,-300.78125,-721.6796875,0.1954768762233649,0.2186897552748895,0.11239920382843484,-1552,-392,-71,4130,310,100607
12:14:22.589,4812,638.671875,-282.2265625,-715.8203125,0.2223549467040776,0.1307251609743753,0.09651670763528641,-1539,-391,-69,4130,310,100607
12:14:22.609,4813,612.3046875,-275.390625,-720.703125,0.2504547476611863,0.07208209810736582,0.09407324668249437,-1548,-396,-67,4130,310,100607
12:14:22.630,4814,600.5859375,-268.5546875,-750.9765625,0.2871066619530672,0.013439035240356337,0.0952949771588904,-1548,-397,-72,4130,310,100607
12:14:22.650,4815,572.265625,-259.765625,-778.3203125,0.27733281814189903,-0.025656340004316647,0.07574728953655392,-1551,-403,-75,4130,310,100607
12:14:22.671,4816,556.640625,-258.7890625,-785.15625,0.2675589743307307,-0.0867428638241182,0.04031710572106901,-1537,-396,-67,4130,310,100607
12:14:22.681,4817,549.8046875,-270.5078125,-790.0390625,0.2541199390903744,-0.11972958668681102,0.03420845333908886,-1548,-404,-83,4130,310,100607
12:14:22.702,4818,539.0625,-270.5078125,-807.6171875,0.2687807048071268,-0.12828170002158323,0.029321531433504737,-1534,-403,-72,4130,310,100607
12:14:22.722,4819,530.2734375,-270.5078125,-808.59375,0.28344147052387914,-0.1233947781159991,0.029321531433504737,-1542,-408,-72,4130,310,100607
12:14:22.743,4820,512.6953125,-278.3203125,-824.21875,0.27611108766550296,-0.11728612573401895,0.007330382858376184,-1553,-415,-80,4130,310,100607
12:14:22.753,4821,504.8828125,-295.8984375,-833.984375,0.26267205242514663,-0.12583823906879116,0.006108652381980153,-1553,-416,-69,4130,310,100607
12:14:22.794,4822,489.2578125,-309.5703125,-846.6796875,0.22479840765686968,-0.1233947781159991,0.010995574287564277,-1552,-420,-78,4130,310,100607
12:14:22.865,4823,473.6328125,-313.4765625,-861.328125,0.22602013813326569,-0.1148426647812269,0.01710422666954443,-1554,-419,-79,4130,310,100607
12:14:22.886,4824,452.1484375,-342.7734375,-893.5546875,0.40805797911627434,-0.10506882097005865,-0.03054326190990077,-1553,-420,-69,4130,310,100607
12:14:22.907,4825,436.5234375,-379.8828125,-908.203125,0.49968776484597655,-0.09407324668249437,-0.06597344572538566,-1553,-421,-69,4130,310,100607
12:14:22.917,4826,421.875,-421.875,-913.0859375,0.4825835381764321,-0.08063421144213802,-0.10873401239924674,-1550,-425,-72,4130,310,100607
12:14:22.938,4827,411.1328125,-442.3828125,-912.109375,0.395840674352314,-0.06597344572538566,-0.18325957145940464,-1562,-429,-65,4130,310,100607
12:14:22.959,4828,391.6015625,-447.265625,-908.203125,0.3811799086355616,-0.048869219055841226,-0.278554548618295,-1558,-431,-55,4130,310,100607
12:14:22.980,4829,375.0,-454.1015625,-896.484375,0.4410447019789671,-0.039095375244672985,-0.39339721339952194,-1559,-432,-64,4130,310,100607
12:14:22.990,4830,372.0703125,-471.6796875,-890.625,0.5326744877086694,-0.04398229715025711,-0.515570261039125,-1557,-438,-68,4130,310,100607
12:14:23.11,4831,365.234375,-479.4921875,-864.2578125,0.555887366760194,-0.04031710572106901,-0.6450736915371041,-1559,-439,-73,4130,310,100607
12:14:23.32,4832,363.28125,-498.046875,-835.9375,0.4862487296056202,-0.06230825429619757,-0.8588765249064098,-1563,-441,-67,4130,310,100607
12:14:23.52,4833,340.8203125,-498.046875,-812.5,0.37018433434799736,-0.07696902001294993,-1.0030407211211414,-1557,-435,-64,4130,310,100607
12:14:23.73,4834,322.265625,-473.6328125,-781.25,0.3139847324337799,-0.07941248096574201,-1.1789699097221698,-1565,-441,-53,4130,310,100607
12:14:23.83,4835,307.6171875,-456.0546875,-781.25,0.31642819338657197,-0.07452555906015788,-1.347568715464822,-1566,-439,-71,4130,310,100607
12:14:23.104,4836,313.4765625,-434.5703125,-765.625,0.3200933848157601,-0.09651670763528641,-1.5271630954950386,-1562,-435,-57,4130,310,100607
12:14:23.145,4837,325.1953125,-438.4765625,-719.7265625,0.15393804002589986,-0.1392772743091475,-1.705535745048859,-1565,-426,-53,4130,310,100607
12:14:23.165,4838,336.9140625,-416.015625,-696.2890625,-0.08552113334772216,-0.20158552860534507,-1.901012621272224,-1566,-421,-64,4130,310,100607
12:14:23.175,4839,346.6796875,-356.4453125,-664.0625,-0.23701571242082997,-0.2504547476611863,-2.0720548879676683,-1569,-411,-61,4130,310,100607
12:14:23.196,4840,368.1640625,-314.453125,-647.4609375,-0.2944370448114434,-0.28099800957108706,-2.3261748270580425,-1571,-395,-55,4130,310,100607
12:14:23.217,4841,375.0,-272.4609375,-647.4609375,-0.3799581781591656,-0.36163222101322506,-2.4691172927963785,-1576,-391,-67,4130,310,100607
12:14:23.238,4842,373.046875,-209.9609375,-643.5546875,-0.4691445029360758,-0.4300491276914028,-2.6096162975819217,-1583,-379,-47,4130,310,100607
12:14:23.249,4843,380.859375,-164.0625,-651.3671875,-0.5241223743738972,-0.49968776484597655,-2.723237231886752,-1593,-358,-59,4130,310,100607
12:14:23.269,4844,384.765625,-107.421875,-654.296875,-0.55100044485461,-0.5729915934297385,-2.814867017616455,-1575,-336,-47,4130,310,100607
12:14:23.290,4845,356.4453125,-56.640625,-637.6953125,-0.592539281052075,-0.6499606134426883,-2.9040533423933654,-1617,-338,-48,4130,310,100607
12:14:23.310,4846,317.3828125,30.2734375,-674.8046875,-0.5742133239061344,-0.6890559886873614,-2.985909284311899,-1628,-320,-44,4130,310,100607
12:14:23.320,4847,285.15625,83.984375,-697.265625,-0.47280969436526393,-0.7244861725028463,-3.0836477224235814,-1625,-310,-46,4130,310,100607
12:14:23.341,4848,269.53125,114.2578125,-696.2890625,-0.40805797911627434,-0.7684684696531033,-3.144734246243383,-1646,-302,-51,4130,310,100607
12:14:23.362,4849,251.953125,165.0390625,-662.109375,-0.6731734924942129,-0.8503244115716375,-3.1874948129172442,-1669,-288,-41,4130,310,100607
12:14:23.382,4850,237.3046875,245.1171875,-629.8828125,-0.9883799554043888,-0.9541715020653,-3.1642819338657198,-1680,-281,-43,4130,310,100607
12:14:23.402,4851,199.21875,353.515625,-601.5625,-1.2266173983016149,-1.1056660811384078,-3.1007519490931266,-1702,-265,-51,4130,310,100607
12:14:23.413,4852,169.921875,421.875,-618.1640625,-1.2449433554475555,-1.3267992973660896,-3.0384436947969284,-1728,-248,-44,4118,311,100606
12:14:23.433,4853,140.625,515.625,-645.5078125,-1.0824532020868831,-1.5454890526409788,-2.967583327165959,-1742,-240,-40,4118,311,100606
12:14:23.454,4854,79.1015625,567.3828125,-624.0234375,-0.8759807515759541,-1.707979206001651,-2.895501229058593,-1755,-228,-56,4118,311,100606
12:14:23.474,4855,38.0859375,560.546875,-582.03125,-0.8405505677604692,-1.8533651326927787,-2.818532209045643,-1805,-230,-47,4118,311,100606
12:14:23.484,4856,23.4375,563.4765625,-583.984375,-0.9578366934944882,-1.9938641374783221,-2.7403414585562973,-1824,-226,-60,4118,311,100606
12:14:23.505,4857,-17.578125,582.03125,-599.609375,-1.1533135697178531,-2.233323310851944,-2.612059758534714,-1860,-227,-68,4118,311,100606
12:14:23.526,4858,-102.5390625,650.390625,-625.0,-1.18507856210415,-2.3506094365859633,-2.5558601566204966,-1894,-221,-74,4118,311,100606
12:14:23.546,4859,-191.40625,700.1953125,-615.234375,-1.1655308744818131,-2.452013066126834,-2.5228734337578036,-1905,-222,-82,4118,311,100606
12:14:23.567,4860,-247.0703125,687.5,-601.5625,-1.1655308744818131,-2.526538625186992,-2.484999788989527,-1943,-221,-97,4118,311,100606
12:14:23.577,4861,-246.09375,663.0859375,-620.1171875,-1.1178833859023682,-2.581516496624813,-2.4727824842255663,-1969,-214,-109,4118,311,100606
12:14:23.598,4862,-257.8125,648.4375,-610.3515625,-1.147204917335873,-2.6560420556849706,-2.46545210136719,-1995,-223,-123,4118,311,100606
12:14:23.639,4863,-312.5,621.09375,-573.2421875,-1.2034045192500902,-2.805093173805287,-2.503325746135467,-2026,-231,-142,4118,311,100606
12:14:23.649,4864,-391.6015625,639.6484375,-583.984375,-1.1337658820955165,-3.0127873547926116,-2.596177262341565,-2066,-236,-163,4118,311,100606
12:14:23.670,4865,-487.3046875,714.84375,-653.3203125,-0.6291911953439558,-3.1374038633850074,-2.781880294753762,-2074,-239,-186,4118,311,100606
12:14:23.691,4866,-634.765625,734.375,-644.53125,-0.3127630019573839,-3.273015946264967,-2.7977627909469103,-2114,-261,-206,4118,311,100606
12:14:23.711,4867,-813.4765625,715.8203125,-605.46875,-0.18325957145940464,-3.3072243996040553,-2.7195720404575643,-2145,-287,-222,4118,311,100606
12:14:23.732,4868,-931.640625,663.0859375,-676.7578125,-0.025656340004316647,-3.2766811376941543,-2.6047293756763374,-2155,-294,-244,4118,311,100606
12:14:23.743,4869,-978.515625,655.2734375,-852.5390625,0.17592918860102844,-3.0970867576639383,-2.3958134642126163,-2182,-317,-268,4118,311,100606
12:14:23.763,4870,-1009.765625,584.9609375,-841.796875,0.08918632477691024,-2.9077185338225533,-2.191784474654479,-2201,-335,-298,4118,311,100606
12:14:23.783,4871,-1056.640625,488.28125,-682.6171875,-0.3787364476827696,-2.7513370328438613,-2.0109683641478666,-2214,-352,-334,4118,311,100606
12:14:23.804,4872,-1122.0703125,492.1875,-594.7265625,-0.9187413182498152,-2.5680774613844566,-1.9083430041306,-2217,-365,-340,4118,311,100606
12:14:23.814,4873,-1155.2734375,558.59375,-695.3125,-1.1826351011513576,-2.356718088967943,-1.7800613041090168,-2228,-381,-363,4118,311,100606
12:14:23.834,4874,-1156.25,567.3828125,-785.15625,-1.308473340220149,-2.051285469868936,-1.3658946726107624,-2236,-388,-385,4118,311,100606
12:14:23.854,4875,-1156.25,502.9296875,-667.96875,-1.711644397430839,-1.8594737850747587,-1.033583983031042,-2231,-391,-403,4118,311,100606
12:14:23.875,4876,-1127.9296875,500.0,-478.515625,-2.0867156536844207,-1.6725490221861663,-0.7586946258419351,-2238,-402,-425,4118,311,100606
12:14:23.896,4877,-1107.421875,594.7265625,-380.859375,-2.0928243060664005,-1.5406021307353948,-0.5253441048502933,-2242,-408,-445,4118,311,100606
12:14:23.906,4878,-1097.65625,691.40625,-420.8984375,-1.5161675212074743,-1.4587461888168607,-0.2846632010002752,-2242,-411,-447,4118,311,100606
12:14:23.926,4879,-1062.5,693.359375,-491.2109375,-0.6878342582109653,-1.4172073526193958,-0.04398229715025711,-2238,-411,-460,4118,311,100606
12:14:23.946,4880,-1032.2265625,648.4375,-417.96875,-0.1307251609743753,-1.3805554383275147,0.16371188383706814,-2241,-410,-473,4118,311,100606
12:14:23.967,4881,-997.0703125,581.0546875,-350.5859375,0.15271630954950383,-1.3341296802244655,0.27611108766550296,-2245,-412,-486,4118,311,100606
12:14:23.988,4882,-969.7265625,493.1640625,-376.953125,0.3286454981505323,-1.219287015443239,0.33597588100890846,-2222,-404,-495,4118,311,100606
12:14:23.998,4883,-973.6328125,385.7421875,-426.7578125,0.19181168479417682,-1.0787880106576953,0.32253684576855207,-2230,-403,-495,4118,311,100606
12:14:24.19,4884,-949.21875,299.8046875,-399.4140625,-0.20891591146372127,-0.9346238144429636,0.2736676267127109,-2231,-403,-517,4118,311,100606
12:14:24.60,4885,-914.0625,322.265625,-344.7265625,-0.592539281052075,-0.7904596182282319,0.15638150097869194,-2229,-400,-526,4118,311,100606
12:14:24.70,4886,-905.2734375,410.15625,-326.171875,-0.7110471372624899,-0.6499606134426883,0.020769418098732523,-2231,-403,-521,4118,311,100606
12:14:24.90,4887,-917.96875,458.984375,-311.5234375,-0.5045746867515608,-0.5485569839018178,-0.07819075048934597,-2225,-400,-531,4118,311,100606
12:14:24.111,4888,-947.265625,433.59375,-298.828125,-0.06963863715457375,-0.5033529562751646,-0.09162978572970232,-2222,-398,-540,4118,311,100606
12:14:24.132,4889,-971.6796875,369.140625,-264.6484375,0.2553416695667704,-0.4459316238845512,-0.04031710572106901,-2210,-396,-544,4118,311,100606
12:14:24.143,4890,-987.3046875,345.703125,-229.4921875,0.4276056667386108,-0.37140606482439337,0.05497787143782139,-2223,-399,-550,4118,311,100606
12:14:24.163,4891,-1013.671875,325.1953125,-204.1015625,0.5131268000863329,-0.3274237676741363,0.0989601685880785,-2226,-396,-547,4118,311,100606
12:14:24.204,4892,-1009.765625,263.671875,-218.75,0.6120869686744114,-0.238237442897226,0.09407324668249437,-2220,-394,-549,4118,311,100606
12:14:24.224,4893,-1016.6015625,239.2578125,-249.0234375,0.6475171524898963,-0.1307251609743753,0.03298672286269283,-2209,-385,-563,4118,311,100606
12:14:24.234,4894,-992.1875,209.9609375,-251.953125,0.5375614096142536,-0.04153883619746505,-0.0158824961931484,-2222,-384,-555,4118,311,100606
12:14:24.255,4895,-966.796875,222.65625,-180.6640625,0.2700024352835228,0.025656340004316647,-0.039095375244672985,-2222,-387,-545,4118,311,100606
12:14:24.275,4896,-945.3125,286.1328125,-115.234375,0.11972958668681102,0.04153883619746505,-0.03420845333908886,-2221,-386,-548,4118,311,100606
12:14:24.296,4897,-936.5234375,336.9140625,-66.40625,0.11606439525762292,0.03787364476827696,-0.03420845333908886,-2223,-388,-562,4118,311,100606
12:14:24.306,4898,-929.6875,330.078125,-34.1796875,0.24068090385001806,0.01832595714594046,-0.051312680008633295,-2220,-390,-569,4118,311,100606
12:14:24.326,4899,-933.59375,315.4296875,-15.625,0.4276056667386108,-0.0024434609527920616,-0.09407324668249437,-2223,-385,-552,4118,311,100606
12:14:24.346,4900,-927.734375,317.3828125,-12.6953125,0.4838052686528282,-0.0158824961931484,-0.14172073526193957,-2221,-388,-556,4118,311,100606
12:14:24.367,4901,-918.9453125,315.4296875,-20.5078125,0.4447098934081552,-0.0158824961931484,-0.18814649336498873,-2227,-390,-544,4118,311,100606
12:14:24.388,4902,-920.8984375,302.734375,-25.390625,0.3274237676741363,0.0012217304763960308,-0.20158552860534507,-2224,-389,-543,4118,310,100614
12:14:24.398,4903,-917.96875,284.1796875,-27.34375,0.1270599695451872,0.029321531433504737,-0.1661553447898602,-2217,-391,-556,4118,310,100614
12:14:24.419,4904,-912.109375,285.15625,-18.5546875,-0.09040805525330627,0.058643062867009474,-0.1343903524035634,-2225,-391,-548,4118,310,100614
12:14:24.439,4905,-905.2734375,301.7578125,-23.4375,-0.2724458962363148,0.07452555906015788,-0.12095131716320705,-2224,-392,-543,4118,310,100614
12:14:24.470,4906,-912.109375,318.359375,-38.0859375,-0.37018433434799736,0.06841690667817772,-0.10506882097005865,-2224,-394,-538,4118,310,100614
12:14:24.491,4907,-925.78125,333.0078125,-42.96875,-0.3457497248200767,0.07941248096574201,-0.10140362954087055,-2222,-395,-556,4118,310,100614
12:14:24.511,4908,-927.734375,340.8203125,-29.296875,-0.2944370448114434,0.06963863715457375,-0.10262536001726659,-2223,-399,-551,4118,310,100614
12:14:24.532,4909,-928.7109375,339.84375,-40.0390625,-0.2419026343264141,0.06475171524898964,-0.07941248096574201,-2226,-399,-547,4118,310,100614
12:14:24.552,4910,-928.7109375,325.1953125,-57.6171875,-0.20525072003453318,0.0476474885794452,-0.05497787143782139,-2219,-396,-538,4118,310,100614
12:14:24.563,4911,-934.5703125,323.2421875,-67.3828125,-0.19914206765255302,0.04031710572106901,-0.03543018381548489,-2228,-396,-552,4118,310,100614
12:14:24.583,4912,-943.359375,330.078125,-66.40625,-0.14172073526193957,0.024434609527920613,-0.019547687622336492,-2222,-400,-557,4118,310,100614
12:14:24.624,4913,-950.1953125,337.890625,-55.6640625,-0.0671951762017817,0.019547687622336492,0.0158824961931484,-2227,-400,-547,4118,310,100614
12:14:24.634,4914,-956.0546875,334.9609375,-52.734375,0.0024434609527920616,0.009773843811168246,0.03665191429188092,-2225,-399,-553,4118,310,100614
12:14:24.654,4915,-957.03125,333.0078125,-62.5,0.1148426647812269,-0.008552113334772215,0.10506882097005865,-2225,-398,-545,4118,310,100614
12:14:24.674,4916,-945.3125,310.546875,-66.40625,0.10995574287564278,-0.024434609527920613,0.1307251609743753,-2226,-398,-550,4118,310,100614
12:14:24.695,4917,-933.59375,285.15625,-69.3359375,0.05986479334340551,-0.023212879051524585,0.11728612573401895,-2217,-393,-551,4118,310,100614
12:14:24.716,4918,-929.6875,288.0859375,-70.3125,0.021991148575128554,0.0024434609527920616,0.08552113334772216,-2227,-394,-548,4118,310,100614
12:14:24.726,4919,-924.8046875,293.9453125,-64.453125,-0.007330382858376184,0.023212879051524585,0.05986479334340551,-2224,-396,-554,4118,310,100614
12:14:24.767,4920,-924.8046875,300.78125,-46.875,-0.012217304763960306,0.04642575810304917,0.0317649923862968,-2226,-391,-551,4118,310,100614
12:14:24.788,4921,-927.734375,298.828125,-51.7578125,0.01832595714594046,0.05497787143782139,0.020769418098732523,-2217,-392,-558,4118,310,100614
12:14:24.798,4922,-927.734375,288.0859375,-63.4765625,0.04276056667386108,0.04642575810304917,0.024434609527920613,-2227,-395,-558,4118,310,100614
12:14:24.819,4923,-929.6875,289.0625,-61.5234375,0.025656340004316647,0.039095375244672985,0.008552113334772215,-2226,-394,-549,4118,310,100614
12:14:24.839,4924,-931.640625,294.921875,-58.59375,0.026878070480712675,0.0158824961931484,0.0024434609527920616,-2227,-390,-549,4118,310,100614
12:14:24.860,4925,-940.4296875,298.828125,-52.734375,0.03665191429188092,0.01710422666954443,0.0012217304763960308,-2224,-395,-552,4118,310,100614
12:14:24.870,4926,-935.546875,288.0859375,-48.828125,0.004886921905584123,0.019547687622336492,-0.004886921905584123,-2228,-394,-564,4118,310,100614
12:14:24.890,4927,-931.640625,288.0859375,-54.6875,-0.024434609527920613,0.03054326190990077,-0.023212879051524585,-2229,-390,-542,4118,310,100614
12:14:24.911,4928,-928.7109375,302.734375,-56.640625,-0.0012217304763960308,0.023212879051524585,-0.0317649923862968,-2229,-391,-555,4118,310,100614
12:14:24.931,4929,-931.640625,312.5,-57.6171875,0.04398229715025711,0.013439035240356337,-0.03420845333908886,-2225,-389,-553,4118,310,100614
12:14:24.952,4930,-927.734375,315.4296875,-53.7109375,0.07819075048934597,0.0024434609527920616,-0.0317649923862968,-2226,-392,-552,4118,310,100614
12:14:24.962,4931,-925.78125,299.8046875,-55.6640625,0.05986479334340551,0.0012217304763960308,-0.014660765716752368,-2209,-386,-557,4118,310,100614
12:14:24.983,4932,-926.7578125,287.109375,-57.6171875,-0.06597344572538566,0.010995574287564277,-0.013439035240356337,-2224,-392,-548,4118,310,100614
12:14:25.3,4933,-926.7578125,297.8515625,-50.78125,-0.1111774733520388,0.012217304763960306,-0.0317649923862968,-2226,-394,-557,4118,310,100614
12:14:25.34,4934,-929.6875,326.171875,-51.7578125,-0.07330382858376185,0.01710422666954443,-0.03543018381548489,-2227,-391,-553,4118,310,100614
12:14:25.54,4935,-923.828125,330.078125,-51.7578125,-0.013439035240356337,0.007330382858376184,-0.03665191429188092,-2229,-395,-538,4118,310,100614
12:14:25.115,4936,-928.7109375,329.1015625,-55.6640625,0.03420845333908886,-0.0024434609527920616,-0.026878070480712675,-2228,-389,-562,4118,310,100614
12:14:25.125,4937,-929.6875,316.40625,-57.6171875,0.03420845333908886,0.0024434609527920616,-0.02809980095710871,-2225,-393,-542,4118,310,100614
12:14:25.146,4938,-932.6171875,313.4765625,-57.6171875,-0.014660765716752368,0.0012217304763960308,-0.021991148575128554,-2215,-389,-555,4118,310,100614
12:14:25.166,4939,-930.6640625,316.40625,-60.546875,-0.04153883619746505,0.0024434609527920616,-0.010995574287564277,-2226,-395,-556,4118,310,100614
12:14:25.186,4940,-928.7109375,321.2890625,-56.640625,-0.010995574287564277,0.003665191429188092,0.0,-2220,-397,-553,4118,310,100614
12:14:25.207,4941,-923.828125,327.1484375,-59.5703125,0.026878070480712675,0.0024434609527920616,-0.004886921905584123,-2224,-396,-544,4118,310,100614
12:14:25.217,4942,-923.828125,319.3359375,-56.640625,0.02809980095710871,0.008552113334772215,0.0012217304763960308,-2224,-389,-540,4118,310,100614
12:14:25.237,4943,-927.734375,311.5234375,-59.5703125,0.008552113334772215,0.004886921905584123,0.0,-2221,-393,-548,4118,310,100614
12:14:25.258,4944,-927.734375,310.546875,-55.6640625,0.0024434609527920616,0.006108652381980153,-0.004886921905584123,-2226,-394,-547,4118,310,100614
12:14:25.278,4945,-925.78125,311.5234375,-58.59375,0.007330382858376184,0.003665191429188092,-0.0024434609527920616,-2213,-388,-550,4118,310,100614
12:14:25.289,4946,-932.6171875,318.359375,-60.546875,0.03298672286269283,0.0024434609527920616,-0.0024434609527920616,-2203,-386,-552,4118,310,100614
12:14:25.309,4947,-929.6875,313.4765625,-56.640625,0.05009094953223726,0.004886921905584123,0.003665191429188092,-2228,-396,-550,4118,310,100614
12:14:25.329,4948,-936.5234375,307.6171875,-61.5234375,0.023212879051524585,0.006108652381980153,0.008552113334772215,-2223,-390,-538,4118,310,100614
12:14:25.350,4949,-936.5234375,303.7109375,-62.5,-0.007330382858376184,0.01710422666954443,0.01832595714594046,-2217,-394,-546,4118,310,100614
12:14:25.370,4950,-924.8046875,302.734375,-59.5703125,-0.03298672286269283,0.020769418098732523,0.01832595714594046,-2226,-391,-551,4118,310,100614
12:14:25.380,4951,-930.6640625,299.8046875,-55.6640625,-0.0476474885794452,0.023212879051524585,0.01710422666954443,-2223,-396,-559,4118,310,100614
12:14:25.400,4952,-932.6171875,304.6875,-56.640625,-0.023212879051524585,0.023212879051524585,0.008552113334772215,-2227,-385,-537,4124,310,100612
12:14:25.421,4953,-931.640625,314.453125,-61.5234375,0.024434609527920613,0.013439035240356337,-0.0012217304763960308,-2226,-387,-552,4124,310,100612
12:14:25.441,4954,-936.5234375,315.4296875,-54.6875,0.05986479334340551,0.003665191429188092,-0.004886921905584123,-2222,-390,-546,4124,310,100612
12:14:25.461,4955,-927.734375,301.7578125,-56.640625,0.05742133239061345,-0.004886921905584123,-0.007330382858376184,-2226,-391,-552,4124,310,100612
12:14:25.471,4956,-917.96875,298.828125,-55.6640625,0.052534410485029326,-0.01710422666954443,-0.009773843811168246,-2224,-392,-547,4124,310,100612
12:14:25.492,4957,-913.0859375,306.640625,-60.546875,0.08429940287132612,-0.021991148575128554,-0.03543018381548489,-2225,-389,-551,4124,310,100612
12:14:25.512,4958,-924.8046875,306.640625,-57.6171875,0.10995574287564278,-0.024434609527920613,-0.03420845333908886,-2229,-386,-551,4124,310,100612
12:14:25.532,4959,-926.7578125,300.78125,-49.8046875,0.09162978572970232,-0.03054326190990077,-0.03543018381548489,-2213,-384,-556,4124,310,100612
12:14:25.553,4960,-927.734375,302.734375,-52.734375,0.07941248096574201,-0.03787364476827696,-0.04642575810304917,-2228,-392,-554,4124,310,100612
12:14:25.573,4961,-933.59375,314.453125,-47.8515625,0.0952949771588904,-0.04642575810304917,-0.05375614096142535,-2223,-387,-544,4124,310,100612
12:14:25.604,4962,-932.6171875,321.2890625,-51.7578125,0.13316862192716736,-0.05619960191421742,-0.04276056667386108,-2227,-388,-557,4124,310,100612
12:14:25.624,4963,-932.6171875,319.3359375,-46.875,0.1478293876439197,-0.05742133239061345,-0.03420845333908886,-2222,-387,-547,4124,310,100612
12:14:25.645,4964,-928.7109375,314.453125,-43.9453125,0.1478293876439197,-0.05375614096142535,-0.008552113334772215,-2222,-387,-538,4124,310,100612
12:14:25.655,4965,-923.828125,310.546875,-49.8046875,0.13194689145077132,-0.07819075048934597,-0.0024434609527920616,-2229,-391,-551,4124,310,100612
12:14:25.675,4966,-926.7578125,316.40625,-55.6640625,0.15393804002589986,-0.08063421144213802,-0.004886921905584123,-2212,-382,-545,4124,310,100612
12:14:25.695,4967,-936.5234375,318.359375,-58.59375,0.16126842288427604,-0.07086036763096978,-0.0012217304763960308,-2225,-388,-561,4124,310,100612
12:14:25.716,4968,-939.453125,315.4296875,-60.546875,0.1551597705022959,-0.05497787143782139,0.020769418098732523,-2225,-391,-558,4124,310,100612
12:14:25.737,4969,-935.546875,311.5234375,-65.4296875,0.14416419621473164,-0.04153883619746505,0.03665191429188092,-2224,-387,-554,4124,310,100612
12:14:25.747,4970,-928.7109375,307.6171875,-79.1015625,0.14905111812031577,-0.03298672286269283,0.03543018381548489,-2222,-388,-560,4124,310,100612
12:14:25.767,4971,-929.6875,305.6640625,-89.84375,0.15149457907310784,-0.03665191429188092,0.03054326190990077,-2219,-386,-559,4124,310,100612
12:14:25.788,4972,-938.4765625,309.5703125,-76.171875,0.17959438003021652,-0.020769418098732523,0.0317649923862968,-2221,-388,-564,4124,310,100612
12:14:25.809,4973,-944.3359375,298.828125,-63.4765625,0.15882496193148402,0.0024434609527920616,0.013439035240356337,-2216,-380,-557,4124,310,100612
12:14:25.829,4974,-933.59375,294.921875,-60.546875,0.1270599695451872,0.010995574287564277,0.023212879051524585,-2229,-382,-560,4124,310,100612
12:14:25.839,4975,-933.59375,295.8984375,-58.59375,0.10262536001726659,0.013439035240356337,0.02809980095710871,-2223,-382,-549,4124,310,100612
12:14:25.880,4976,-931.640625,304.6875,-51.7578125,0.09285151620609834,0.009773843811168246,0.03298672286269283,-2220,-383,-565,4124,310,100612
12:14:25.901,4977,-921.875,305.6640625,-38.0859375,0.08429940287132612,0.008552113334772215,0.04520402762665313,-2220,-381,-556,4124,310,100612
12:14:25.911,4978,-925.78125,302.734375,-34.1796875,0.06963863715457375,0.010995574287564277,0.05375614096142535,-2222,-380,-550,4124,310,100612
12:14:25.931,4979,-932.6171875,299.8046875,-42.96875,0.051312680008633295,0.01832595714594046,0.03665191429188092,-2224,-382,-551,4124,310,100612
12:14:25.952,4980,-935.546875,296.875,-49.8046875,-0.01832595714594046,0.039095375244672985,0.029321531433504737,-2218,-376,-550,4124,310,100612
12:14:25.972,4981,-934.5703125,291.015625,-43.9453125,-0.10995574287564278,0.05497787143782139,0.03665191429188092,-2221,-380,-552,4124,310,100612
12:14:25.992,4982,-926.7578125,301.7578125,-41.015625,-0.17959438003021652,0.06108652381980154,0.03298672286269283,-2218,-384,-557,4124,310,100612
12:14:26.23,4983,-936.5234375,308.59375,-43.9453125,-0.18448130193580062,0.05986479334340551,0.029321531433504737,-2219,-386,-546,4124,310,100612
12:14:26.44,4984,-941.40625,311.5234375,-51.7578125,-0.1954768762233649,0.05986479334340551,0.0317649923862968,-2219,-380,-557,4124,310,100612
12:14:26.64,4985,-939.453125,304.6875,-51.7578125,-0.23701571242082997,0.06475171524898964,0.029321531433504737,-2226,-388,-557,4124,310,100612
12:14:26.84,4986,-934.5703125,307.6171875,-67.3828125,-0.27611108766550296,0.07696902001294993,0.04398229715025711,-2222,-386,-559,4124,310,100612
12:14:26.95,4987,-922.8515625,312.5,-70.3125,-0.2907718533822553,0.07208209810736582,0.039095375244672985,-2217,-387,-551,4124,310,100612
12:14:26.115,4988,-915.0390625,313.4765625,-66.40625,-0.27977627909469105,0.07941248096574201,0.024434609527920613,-2226,-388,-557,4124,310,100612
12:14:26.136,4989,-897.4609375,323.2421875,-67.3828125,-0.29810223624063154,0.07330382858376185,0.014660765716752368,-2220,-394,-554,4124,310,100612
12:14:26.156,4990,-889.6484375,333.0078125,-64.453125,-0.2871066619530672,0.0671951762017817,-0.006108652381980153,-2222,-390,-549,4124,310,100612
12:14:26.166,4991,-903.3203125,353.515625,-56.640625,-0.26389378290154264,0.05375614096142535,-0.014660765716752368,-2222,-386,-565,4124,310,100612
12:14:26.187,4992,-917.96875,370.1171875,-47.8515625,-0.2211332162276816,0.048869219055841226,-0.013439035240356337,-2221,-386,-553,4124,310,100612
12:14:26.207,4993,-932.6171875,369.140625,-41.9921875,-0.1869247628885927,0.048869219055841226,0.004886921905584123,-2218,-385,-550,4124,310,100612
12:14:26.228,4994,-940.4296875,368.1640625,-36.1328125,-0.15638150097869194,0.039095375244672985,0.01832595714594046,-2208,-383,-558,4124,310,100612
12:14:26.248,4995,-948.2421875,357.421875,-35.15625,-0.11850785621041499,0.03420845333908886,0.03298672286269283,-2219,-389,-551,4124,310,100612
12:14:26.258,4996,-940.4296875,335.9375,-41.015625,-0.06108652381980154,0.023212879051524585,0.039095375244672985,-2222,-388,-551,4124,310,100612
12:14:26.300,4997,-931.640625,321.2890625,-62.5,-0.021991148575128554,0.009773843811168246,0.012217304763960306,-2220,-393,-552,4124,310,100612
12:14:26.320,4998,-930.6640625,322.265625,-63.4765625,0.012217304763960306,0.004886921905584123,-0.013439035240356337,-2206,-383,-569,4124,310,100612
12:14:26.330,4999,-923.828125,314.453125,-61.5234375,0.013439035240356337,0.010995574287564277,-0.029321531433504737,-2219,-389,-553,4124,310,100612
12:14:26.351,5000,-920.8984375,315.4296875,-68.359375,-0.021991148575128554,0.023212879051524585,-0.006108652381980153,-2225,-388,-560,4124,310,100612
12:14:26.371,5001,-922.8515625,322.265625,-63.4765625,-0.04276056667386108,0.026878070480712675,0.004886921905584123,-2207,-376,-552,4124,310,100612
12:14:26.392,5002,-931.640625,329.1015625,-61.5234375,-0.03298672286269283,0.03665191429188092,0.0024434609527920616,-2223,-386,-556,4136,310,100616
12:14:26.413,5003,-922.8515625,343.75,-53.7109375,-0.013439035240356337,0.03665191429188092,-0.013439035240356337,-2221,-386,-553,4136,310,100616
12:14:26.443,5004,-918.9453125,351.5625,-52.734375,0.013439035240356337,0.04520402762665313,-0.01832595714594046,-2218,-385,-549,4136,310,100616
12:14:26.464,5005,-913.0859375,353.515625,-46.875,0.05497787143782139,0.04276056667386108,-0.02809980095710871,-2215,-385,-552,4136,310,100616
12:14:26.484,5006,-904.296875,350.5859375,-44.921875,0.07086036763096978,0.051312680008633295,0.0158824961931484,-2218,-384,-550,4136,310,100616
12:14:26.505,5007,-895.5078125,339.84375,-37.109375,0.1075122819228507,0.04520402762665313,0.058643062867009474,-2224,-384,-545,4136,310,100616
12:14:26.515,5008,-895.5078125,320.3125,-39.0625,0.12950343049797927,0.02809980095710871,0.09040805525330627,-2215,-379,-548,4136,310,100616
12:14:26.535,5009,-907.2265625,303.7109375,-38.0859375,0.1270599695451872,0.01710422666954443,0.11362093430483088,-2203,-371,-551,4136,310,100616
12:14:26.556,5010,-919.921875,292.96875,-44.921875,0.09773843811168245,0.004886921905584123,0.10018189906447451,-2225,-385,-567,4136,310,100616
12:14:26.576,5011,-931.640625,291.9921875,-54.6875,0.06108652381980154,-0.004886921905584123,0.08918632477691024,-2224,-381,-554,4136,310,100616
12:14:26.596,5012,-944.3359375,294.921875,-74.21875,0.03054326190990077,-0.01710422666954443,0.07574728953655392,-2227,-379,-556,4136,310,100616
12:14:26.606,5013,-955.078125,309.5703125,-93.75,-0.0012217304763960308,-0.0158824961931484,0.06230825429619757,-2221,-380,-555,4136,310,100616
12:14:26.627,5014,-956.0546875,328.125,-98.6328125,-0.03298672286269283,-0.012217304763960306,0.07208209810736582,-2222,-381,-553,4136,310,100616
12:14:26.647,5015,-938.4765625,346.6796875,-96.6796875,-0.048869219055841226,0.023212879051524585,0.0830776723949301,-2216,-378,-550,4136,310,100616
12:14:26.667,5016,-920.8984375,367.1875,-93.75,-0.0476474885794452,0.03298672286269283,0.09285151620609834,-2219,-383,-556,4136,310,100616
12:14:26.688,5017,-913.0859375,386.71875,-85.9375,-0.04153883619746505,0.04520402762665313,0.0830776723949301,-2218,-382,-556,4136,310,100616
12:14:26.719,5018,-905.2734375,406.25,-69.3359375,-0.012217304763960306,0.0476474885794452,0.09040805525330627,-2220,-381,-570,4136,310,100616
12:14:26.740,5019,-893.5546875,414.0625,-58.59375,0.03298672286269283,0.04520402762665313,0.09040805525330627,-2218,-380,-550,4136,310,100616
12:14:26.762,5020,-887.6953125,416.9921875,-52.734375,0.1075122819228507,0.029321531433504737,0.0989601685880785,-2220,-379,-548,4136,310,100616
12:14:26.772,5021,-896.484375,411.1328125,-46.875,0.20402898955813717,0.023212879051524585,0.10262536001726659,-2223,-377,-545,4136,310,100616
12:14:26.793,5022,-907.2265625,383.7890625,-35.15625,0.2724458962363148,0.008552113334772215,0.09651670763528641,-2212,-372,-548,4136,310,100616
12:14:26.813,5023,-907.2265625,367.1875,-32.2265625,0.2700024352835228,-0.0317649923862968,0.05497787143782139,-2220,-374,-552,4136,310,100616
12:14:26.834,5024,-918.9453125,367.1875,-52.734375,0.2528982086139784,-0.058643062867009474,0.013439035240356337,-2224,-372,-557,4136,310,100616
12:14:26.864,5025,-934.5703125,367.1875,-57.6171875,0.26022859147235455,-0.08063421144213802,-0.029321531433504737,-2221,-375,-555,4136,310,100616
12:14:26.885,5026,-925.78125,357.421875,-62.5,0.24801128670839426,-0.09285151620609834,-0.07086036763096978,-2212,-372,-541,4136,310,100616
12:14:26.905,5027,-915.0390625,358.3984375,-64.453125,0.21746802479849348,-0.1038470904936626,-0.09773843811168245,-2222,-374,-560,4136,310,100616
12:14:26.925,5028,-901.3671875,376.953125,-78.125,0.20525072003453318,-0.10506882097005865,-0.10995574287564278,-2218,-376,-551,4136,310,100616
12:14:26.936,5029,-897.4609375,398.4375,-84.9609375,0.23212879051524585,-0.10262536001726659,-0.09162978572970232,-2216,-375,-566,4136,310,100616
12:14:26.956,5030,-896.484375,406.25,-74.21875,0.3200933848157601,-0.0952949771588904,-0.07208209810736582,-2217,-373,-555,4136,310,100616
12:14:26.976,5031,-897.4609375,388.671875,-63.4765625,0.4214970143566306,-0.09162978572970232,-0.024434609527920613,-2215,-372,-557,4136,310,100616
12:14:26.997,5032,-904.296875,336.9140625,-51.7578125,0.43493604959698695,-0.05742133239061345,0.006108652381980153,-2219,-369,-558,4136,310,100616
12:14:27.7,5033,-916.015625,306.640625,-50.78125,0.35185837720205687,-0.03420845333908886,-0.0158824961931484,-2207,-369,-559,4136,310,100616
12:14:27.28,5034,-932.6171875,314.453125,-34.1796875,0.2736676267127109,-0.012217304763960306,-0.048869219055841226,-2216,-372,-546,4136,310,100616
12:14:27.49,5035,-930.6640625,322.265625,-26.3671875,0.23579398194443396,-0.009773843811168246,-0.0830776723949301,-2221,-372,-554,4136,310,100616
12:14:27.69,5036,-924.8046875,307.6171875,-24.4140625,0.2577851305195625,-0.025656340004316647,-0.09407324668249437,-2202,-367,-561,4136,310,100616
12:14:27.90,5037,-931.640625,294.921875,-31.25,0.2614503219487506,-0.058643062867009474,-0.07819075048934597,-2221,-372,-555,4136,310,100616
12:14:27.100,5038,-938.4765625,291.9921875,-50.78125,0.22724186860966175,-0.08063421144213802,-0.06841690667817772,-2216,-372,-552,4136,310,100616
12:14:27.140,5039,-944.3359375,288.0859375,-65.4296875,0.1905899543177808,-0.0867428638241182,-0.06841690667817772,-2223,-369,-555,4136,310,100616
12:14:27.161,5040,-947.265625,286.1328125,-79.1015625,0.12950343049797927,-0.0867428638241182,-0.08796459430051422,-2216,-372,-558,4136,310,100616
12:14:27.171,5041,-941.40625,292.96875,-89.84375,0.07452555906015788,-0.0671951762017817,-0.09162978572970232,-2216,-373,-544,4136,310,100616
12:14:27.192,5042,-939.453125,310.546875,-90.8203125,0.01832595714594046,-0.051312680008633295,-0.09285151620609834,-2218,-370,-558,4136,310,100616
12:14:27.213,5043,-935.546875,326.171875,-85.9375,0.025656340004316647,-0.048869219055841226,-0.10629055144645469,-2216,-367,-561,4136,310,100616
12:14:27.233,5044,-925.78125,340.8203125,-73.2421875,0.048869219055841226,-0.0635299847725936,-0.11362093430483088,-2219,-374,-567,4136,310,100616
12:14:27.254,5045,-920.8984375,354.4921875,-69.3359375,0.10262536001726659,-0.08552113334772216,-0.13194689145077132,-2220,-374,-552,4136,310,100616
12:14:27.285,5046,-912.109375,364.2578125,-71.2890625,0.19181168479417682,-0.1038470904936626,-0.1392772743091475,-2221,-373,-566,4136,310,100616
12:14:27.305,5047,-914.0625,354.4921875,-83.984375,0.2822197400474831,-0.12461650859239513,-0.14905111812031577,-2220,-375,-559,4136,310,100616
12:14:27.326,5048,-926.7578125,333.0078125,-83.0078125,0.3286454981505323,-0.10873401239924674,-0.1356120828799594,-2221,-375,-564,4136,310,100616
12:14:27.336,5049,-939.453125,322.265625,-81.0546875,0.29810223624063154,-0.08552113334772216,-0.1270599695451872,-2219,-378,-571,4136,310,100616
12:14:27.356,5050,-940.4296875,320.3125,-77.1484375,0.2748893571891069,-0.058643062867009474,-0.1270599695451872,-2215,-379,-559,4136,310,100616
12:14:27.377,5051,-932.6171875,318.359375,-64.453125,0.2675589743307307,-0.0476474885794452,-0.11972958668681102,-2219,-375,-561,4136,310,100616
12:14:27.397,5052,-930.6640625,321.2890625,-57.6171875,0.2736676267127109,-0.04642575810304917,-0.1111774733520388,-2217,-373,-568,4112,310,100612
12:14:27.417,5053,-927.734375,321.2890625,-55.6640625,0.2858849314766712,-0.04276056667386108,-0.09285151620609834,-2215,-378,-558,4112,310,100612
12:14:27.427,5054,-926.7578125,310.546875,-52.734375,0.2712241657599188,-0.025656340004316647,-0.06108652381980154,-2210,-369,-558,4112,310,100612
12:14:27.447,5055,-927.734375,302.734375,-48.828125,0.23579398194443396,-0.008552113334772215,-0.023212879051524585,-2217,-372,-573,4112,310,100612
12:14:27.468,5056,-928.7109375,291.9921875,-45.8984375,0.1710422666954443,0.0317649923862968,0.009773843811168246,-2218,-374,-563,4112,310,100612
12:14:27.489,5057,-922.8515625,289.0625,-46.875,0.10995574287564278,0.05619960191421742,0.021991148575128554,-2215,-368,-561,4112,310,100612
12:14:27.499,5058,-914.0625,284.1796875,-44.921875,0.05497787143782139,0.06108652381980154,0.0317649923862968,-2219,-364,-553,4112,310,100612
12:14:27.520,5059,-917.96875,280.2734375,-43.9453125,0.0012217304763960308,0.06230825429619757,0.04153883619746505,-2221,-368,-562,4112,310,100612
12:14:27.560,5060,-922.8515625,274.4140625,-42.96875,-0.06108652381980154,0.06230825429619757,0.05009094953223726,-2220,-368,-556,4112,310,100612
12:14:27.581,5061,-930.6640625,282.2265625,-48.828125,-0.10506882097005865,0.05497787143782139,0.048869219055841226,-2220,-372,-556,4112,310,100612
12:14:27.591,5062,-926.7578125,291.015625,-57.6171875,-0.1148426647812269,0.03665191429188092,0.02809980095710871,-2221,-367,-564,4112,310,100612
12:14:27.611,5063,-935.546875,305.6640625,-68.359375,-0.07452555906015788,0.024434609527920613,0.003665191429188092,-2223,-371,-561,4112,310,100612
12:14:27.632,5064,-957.03125,298.828125,-81.0546875,-0.0317649923862968,0.0012217304763960308,-0.03054326190990077,-2211,-371,-555,4112,310,100612
12:14:27.653,5065,-961.9140625,301.7578125,-81.0546875,-0.03298672286269283,0.007330382858376184,-0.058643062867009474,-2218,-373,-555,4112,310,100612
12:14:27.663,5066,-956.0546875,307.6171875,-74.21875,-0.03054326190990077,0.021991148575128554,-0.05619960191421742,-2221,-372,-551,4112,310,100612
12:14:27.703,5067,-932.6171875,306.640625,-74.21875,-0.012217304763960306,0.020769418098732523,-0.05497787143782139,-2219,-373,-561,4112,310,100612
12:14:27.724,5068,-917.96875,307.6171875,-79.1015625,-0.010995574287564277,0.019547687622336492,-0.026878070480712675,-2216,-377,-566,4112,310,100612
12:14:27.745,5069,-914.0625,309.5703125,-67.3828125,-0.019547687622336492,0.01710422666954443,-0.025656340004316647,-2219,-377,-559,4112,310,100612
12:14:27.755,5070,-914.0625,317.3828125,-66.40625,-0.03665191429188092,0.03298672286269283,-0.020769418098732523,-2217,-380,-560,4112,310,100612
12:14:27.775,5071,-916.015625,317.3828125,-56.640625,-0.058643062867009474,0.051312680008633295,-0.004886921905584123,-2203,-371,-560,4112,310,100612
12:14:27.796,5072,-923.828125,309.5703125,-47.8515625,-0.10262536001726659,0.06475171524898964,0.004886921905584123,-2216,-380,-557,4112,310,100612
12:14:27.816,5073,-925.78125,307.6171875,-42.96875,-0.2223549467040776,0.09407324668249437,0.048869219055841226,-2202,-373,-557,4112,310,100612
12:14:27.837,5074,-919.921875,309.5703125,-38.0859375,-0.2883283924294633,0.0989601685880785,0.07574728953655392,-2212,-373,-553,4112,310,100612
12:14:27.847,5075,-917.96875,303.7109375,-28.3203125,-0.2944370448114434,0.0867428638241182,0.08552113334772216,-2217,-378,-561,4112,310,100612
12:14:27.868,5076,-930.6640625,299.8046875,-23.4375,-0.2883283924294633,0.06475171524898964,0.06108652381980154,-2219,-377,-562,4112,310,100612
12:14:27.888,5077,-933.59375,297.8515625,-36.1328125,-0.2871066619530672,0.025656340004316647,0.019547687622336492,-2212,-374,-562,4112,310,100612
12:14:27.909,5078,-926.7578125,303.7109375,-52.734375,-0.2700024352835228,-0.009773843811168246,-0.014660765716752368,-2211,-375,-557,4112,310,100612
12:14:27.919,5079,-933.59375,316.40625,-73.2421875,-0.23335052099164189,-0.04031710572106901,-0.04642575810304917,-2215,-378,-561,4112,310,100612
12:14:27.940,5080,-945.3125,335.9375,-97.65625,-0.20525072003453318,-0.052534410485029326,-0.05619960191421742,-2211,-378,-555,4112,310,100612
12:14:27.981,5081,-951.171875,357.421875,-111.328125,-0.14172073526193957,-0.03298672286269283,-0.04520402762665313,-2217,-376,-551,4112,310,100612
12:14:28.1,5082,-928.7109375,362.3046875,-129.8828125,-0.06230825429619757,-0.0012217304763960308,-0.01710422666954443,-2211,-376,-556,4112,310,100612
12:14:28.12,5083,-908.203125,370.1171875,-130.859375,-0.009773843811168246,0.021991148575128554,0.014660765716752368,-2211,-380,-556,4112,310,100612
12:14:28.32,5084,-907.2265625,380.859375,-110.3515625,0.0830776723949301,0.02809980095710871,0.0317649923862968,-2214,-379,-563,4112,310,100612
12:14:28.53,5085,-911.1328125,374.0234375,-73.2421875,0.1661553447898602,0.0317649923862968,0.03665191429188092,-2215,-378,-556,4112,310,100612
12:14:28.73,5086,-900.390625,359.375,-56.640625,0.22602013813326569,0.026878070480712675,0.03543018381548489,-2214,-381,-552,4112,310,100612
12:14:28.83,5087,-903.3203125,344.7265625,-51.7578125,0.24556782575560218,0.0317649923862968,0.0317649923862968,-2215,-377,-557,4112,310,100612
12:14:28.123,5088,-912.109375,332.03125,-39.0625,0.24434609527920617,0.021991148575128554,0.01832595714594046,-2217,-376,-553,4112,310,100612
12:14:28.143,5089,-920.8984375,318.359375,-28.3203125,0.2186897552748895,0.013439035240356337,-0.01710422666954443,-2219,-376,-551,4112,310,100612
12:14:28.164,5090,-924.8046875,303.7109375,-25.390625,0.16249015336067207,-0.004886921905584123,-0.04031710572106901,-2215,-374,-553,4112,310,100612
12:14:28.174,5091,-931.640625,301.7578125,-40.0390625,0.1307251609743753,-0.025656340004316647,-0.05375614096142535,-2214,-373,-553,4112,310,100612
12:14:28.194,5092,-944.3359375,307.6171875,-44.921875,0.1502728485967118,-0.04153883619746505,-0.06108652381980154,-2209,-369,-556,4112,310,100612
12:14:28.215,5093,-955.078125,300.78125,-54.6875,0.17715091907742447,-0.04520402762665313,-0.04642575810304917,-2219,-373,-562,4112,310,100612
12:14:28.235,5094,-960.9375,294.921875,-62.5,0.16249015336067207,-0.02809980095710871,-0.021991148575128554,-2223,-372,-561,4112,310,100612
12:14:28.256,5095,-964.84375,285.15625,-77.1484375,0.10873401239924674,-0.009773843811168246,0.010995574287564277,-2218,-375,-561,4112,310,100612
12:14:28.266,5096,-942.3828125,282.2265625,-88.8671875,0.052534410485029326,0.0158824961931484,0.03054326190990077,-2218,-373,-561,4112,310,100612
12:14:28.286,5097,-921.875,281.25,-86.9140625,0.029321531433504737,0.03298672286269283,0.05375614096142535,-2221,-377,-560,4112,310,100612
12:14:28.307,5098,-912.109375,276.3671875,-82.03125,0.012217304763960306,0.048869219055841226,0.05619960191421742,-2217,-373,-560,4112,310,100612
12:14:28.327,5099,-916.9921875,281.25,-70.3125,-0.012217304763960306,0.05009094953223726,0.051312680008633295,-2204,-363,-559,4112,310,100612
12:14:28.338,5100,-916.9921875,286.1328125,-61.5234375,-0.013439035240356337,0.05497787143782139,0.03787364476827696,-2217,-367,-558,4112,310,100612
12:14:28.358,5101,-921.875,292.96875,-54.6875,-0.025656340004316647,0.04642575810304917,0.03298672286269283,-2224,-369,-559,4112,310,100612
12:14:28.399,5102,-926.7578125,300.78125,-43.9453125,-0.03298672286269283,0.04642575810304917,0.0317649923862968,-2223,-373,-563,4118,310,100611
12:14:28.420,5103,-927.734375,291.9921875,-37.109375,-0.04520402762665313,0.0317649923862968,0.025656340004316647,-2220,-373,-574,4118,310,100611
12:14:28.430,5104,-924.8046875,286.1328125,-36.1328125,-0.1038470904936626,0.023212879051524585,0.024434609527920613,-2216,-373,-562,4118,310,100611
12:14:28.451,5105,-929.6875,295.8984375,-48.828125,-0.16371188383706814,0.021991148575128554,0.01832595714594046,-2219,-364,-569,4118,310,100611
12:14:28.472,5106,-937.5,299.8046875,-51.7578125,-0.1954768762233649,0.020769418098732523,0.003665191429188092,-2210,-369,-554,4118,310,100611
12:14:28.492,5107,-942.3828125,300.78125,-56.640625,-0.20036379812894903,0.01832595714594046,0.013439035240356337,-2219,-373,-565,4118,310,100611
12:14:28.503,5108,-938.4765625,298.828125,-68.359375,-0.22602013813326569,0.021991148575128554,0.029321531433504737,-2219,-372,-568,4118,310,100611
12:14:28.543,5109,-933.59375,307.6171875,-78.125,-0.25656340004316647,0.03054326190990077,0.0317649923862968,-2217,-376,-557,4118,310,100611
12:14:28.564,5110,-930.6640625,316.40625,-81.0546875,-0.26022859147235455,0.04031710572106901,0.019547687622336492,-2217,-377,-556,4118,310,100611
12:14:28.584,5111,-930.6640625,330.078125,-81.0546875,-0.2553416695667704,0.03787364476827696,0.012217304763960306,-2218,-374,-569,4118,310,100611
12:14:28.594,5112,-934.5703125,345.703125,-74.21875,-0.2553416695667704,0.04398229715025711,0.014660765716752368,-2217,-378,-554,4118,310,100611
12:14:28.615,5113,-924.8046875,370.1171875,-75.1953125,-0.2211332162276816,0.04642575810304917,0.003665191429188092,-2212,-377,-561,4118,310,100611
12:14:28.635,5114,-922.8515625,379.8828125,-73.2421875,-0.1661553447898602,0.052534410485029326,0.014660765716752368,-2217,-373,-560,4118,310,100611
12:14:28.656,5115,-914.0625,390.625,-69.3359375,-0.09651670763528641,0.04398229715025711,0.05375614096142535,-2214,-376,-546,4118,310,100611
