Timestamp,SampleNr,AccX [mg],AccY [mg],AccZ [mg],GyrX [rad/s],GyrY [rad/s],GyrZ [rad/s],MagX [mGs],MagY [mGs],-MagZ [mGs],Battery [mV],Temperature [0.1C],Pressure[Pa]
12:18:26.745,16323,-148.4375,496.09375,-857.421875,0.021991148575128554,-0.019547687622336492,-0.01832595714594046,-2326,-2082,-2095,3814,320,100690
12:18:26.755,16324,-155.2734375,490.234375,-845.703125,-0.048869219055841226,-0.025656340004316647,0.003665191429188092,-2333,-2085,-2092,3814,320,100690
12:18:26.776,16325,-144.53125,505.859375,-841.796875,-0.07086036763096978,-0.012217304763960306,0.0012217304763960308,-2334,-2079,-2111,3814,320,100690
12:18:26.796,16326,-158.203125,520.5078125,-838.8671875,0.0024434609527920616,-0.01832595714594046,0.003665191429188092,-2334,-2080,-2103,3814,320,100690
12:18:26.806,16327,-157.2265625,525.390625,-846.6796875,0.051312680008633295,-0.01832595714594046,0.007330382858376184,-2323,-2077,-2094,3814,320,100690
12:18:26.827,16328,-149.4140625,494.140625,-850.5859375,0.04398229715025711,-0.039095375244672985,0.0024434609527920616,-2334,-2082,-2102,3814,320,100690
12:18:26.847,16329,-150.390625,487.3046875,-833.984375,-0.014660765716752368,-0.01710422666954443,0.0024434609527920616,-2329,-2081,-2095,3814,320,100690
12:18:26.868,16330,-149.4140625,495.1171875,-827.1484375,-0.01832595714594046,-0.0024434609527920616,0.004886921905584123,-2332,-2080,-2106,3814,320,100690
12:18:26.889,16331,-160.15625,506.8359375,-843.75,-0.03054326190990077,-0.003665191429188092,0.012217304763960306,-2338,-2082,-2099,3814,320,100690
12:18:26.899,16332,-151.3671875,512.6953125,-847.65625,0.012217304763960306,-0.013439035240356337,0.008552113334772215,-2336,-2080,-2091,3814,320,100690
12:18:26.919,16333,-149.4140625,527.34375,-832.03125,0.03543018381548489,0.0012217304763960308,0.01710422666954443,-2336,-2084,-2083,3814,320,100690
12:18:26.940,16334,-164.0625,503.90625,-844.7265625,0.04031710572106901,-0.0012217304763960308,0.013439035240356337,-2335,-2080,-2097,3814,320,100690
12:18:26.960,16335,-151.3671875,465.8203125,-845.703125,-0.039095375244672985,-0.0024434609527920616,-0.0012217304763960308,-2331,-2085,-2094,3814,320,100690
12:18:26.970,16336,-162.109375,509.765625,-843.75,-0.07330382858376185,-0.003665191429188092,0.026878070480712675,-2332,-2082,-2093,3814,320,100690
12:18:26.991,16337,-151.3671875,512.6953125,-829.1015625,0.0,0.003665191429188092,0.013439035240356337,-2334,-2076,-2093,3814,320,100690
12:18:27.11,16338,-164.0625,501.953125,-842.7734375,0.03298672286269283,0.013439035240356337,0.01832595714594046,-2330,-2079,-2087,3814,320,100690
12:18:27.32,16339,-151.3671875,504.8828125,-834.9609375,-0.012217304763960306,0.007330382858376184,0.0158824961931484,-2332,-2078,-2101,3814,320,100690
12:18:27.52,16340,-147.4609375,499.0234375,-843.75,-0.039095375244672985,-0.006108652381980153,0.023212879051524585,-2329,-2077,-2093,3814,320,100690
12:18:27.63,16341,-151.3671875,512.6953125,-854.4921875,-0.03543018381548489,0.009773843811168246,0.03054326190990077,-2320,-2075,-2100,3814,320,100690
12:18:27.83,16342,-164.0625,525.390625,-841.796875,-0.021991148575128554,0.0012217304763960308,0.019547687622336492,-2326,-2075,-2099,3814,320,100690
12:18:27.103,16343,-147.4609375,503.90625,-828.125,-0.019547687622336492,0.003665191429188092,0.004886921905584123,-2335,-2077,-2097,3814,320,100690
12:18:27.123,16344,-150.390625,510.7421875,-845.703125,0.010995574287564277,-0.0024434609527920616,0.004886921905584123,-2336,-2074,-2094,3814,320,100690
12:18:27.143,16345,-148.4375,509.765625,-846.6796875,-0.013439035240356337,-0.0012217304763960308,0.009773843811168246,-2330,-2075,-2101,3814,320,100690
12:18:27.154,16346,-148.4375,513.671875,-850.5859375,-0.01832595714594046,0.013439035240356337,0.0,-2330,-2079,-2105,3814,320,100690
12:18:27.174,16347,-146.484375,513.671875,-846.6796875,-0.004886921905584123,0.0158824961931484,0.0,-2329,-2078,-2098,3814,320,100690
12:18:27.195,16348,-150.390625,499.0234375,-843.75,0.01832595714594046,0.004886921905584123,-0.013439035240356337,-2328,-2077,-2099,3814,320,100690
12:18:27.215,16349,-150.390625,518.5546875,-835.9375,-0.0158824961931484,0.0012217304763960308,-0.004886921905584123,-2335,-2082,-2096,3814,320,100690
12:18:27.226,16350,-148.4375,504.8828125,-841.796875,-0.024434609527920613,-0.0012217304763960308,0.0024434609527920616,-2338,-2079,-2090,3814,320,100690
12:18:27.246,16351,-148.4375,502.9296875,-850.5859375,-0.03665191429188092,-0.004886921905584123,-0.013439035240356337,-2331,-2079,-2098,3814,320,100690
12:18:27.267,16352,-151.3671875,530.2734375,-853.515625,-0.003665191429188092,-0.014660765716752368,-0.003665191429188092,-2330,-2079,-2092,3820,320,100687
12:18:27.287,16353,-148.4375,509.765625,-849.609375,0.01710422666954443,-0.013439035240356337,-0.009773843811168246,-2332,-2075,-2097,3820,320,100687
12:18:27.308,16354,-146.484375,500.9765625,-863.28125,0.01832595714594046,-0.020769418098732523,-0.0024434609527920616,-2333,-2079,-2095,3820,320,100687
12:18:27.318,16355,-154.296875,523.4375,-849.609375,-0.02809980095710871,0.0,-0.003665191429188092,-2312,-2071,-2085,3820,320,100687
12:18:27.339,16356,-151.3671875,513.671875,-848.6328125,-0.026878070480712675,-0.0476474885794452,-0.003665191429188092,-2331,-2078,-2090,3820,320,100687
12:18:27.359,16357,-148.4375,521.484375,-847.65625,0.003665191429188092,-0.04520402762665313,-0.019547687622336492,-2329,-2078,-2094,3820,320,100687
12:18:27.380,16358,-158.203125,522.4609375,-847.65625,0.024434609527920613,-0.05742133239061345,-0.014660765716752368,-2332,-2078,-2085,3820,320,100687
12:18:27.390,16359,-151.3671875,524.4140625,-849.609375,0.0476474885794452,-0.029321531433504737,-0.03665191429188092,-2334,-2077,-2101,3820,320,100687
12:18:27.410,16360,-153.3203125,500.0,-834.9609375,0.04153883619746505,-0.05619960191421742,-0.04398229715025711,-2335,-2086,-2091,3820,320,100687
12:18:27.431,16361,-156.25,499.0234375,-848.6328125,0.01710422666954443,-0.039095375244672985,-0.04642575810304917,-2332,-2077,-2098,3820,320,100687
12:18:27.451,16362,-154.296875,512.6953125,-835.9375,-0.04153883619746505,-0.02809980095710871,-0.03420845333908886,-2318,-2078,-2093,3820,320,100687
12:18:27.471,16363,-154.296875,513.671875,-820.3125,-0.025656340004316647,-0.010995574287564277,-0.03665191429188092,-2335,-2082,-2100,3820,320,100687
12:18:27.482,16364,-163.0859375,498.046875,-818.359375,-0.020769418098732523,-0.013439035240356337,-0.0317649923862968,-2331,-2079,-2104,3820,320,100687
12:18:27.502,16365,-162.109375,490.234375,-841.796875,-0.029321531433504737,-0.0317649923862968,-0.03298672286269283,-2333,-2084,-2090,3820,320,100687
12:18:27.522,16366,-162.109375,503.90625,-835.9375,0.0012217304763960308,-0.014660765716752368,-0.03787364476827696,-2337,-2082,-2101,3820,320,100687
12:18:27.542,16367,-160.15625,498.046875,-831.0546875,0.008552113334772215,-0.008552113334772215,-0.03665191429188092,-2332,-2082,-2104,3820,320,100687
12:18:27.563,16368,-170.8984375,513.671875,-842.7734375,0.0,-0.004886921905584123,-0.013439035240356337,-2339,-2083,-2104,3820,320,100687
12:18:27.573,16369,-166.015625,512.6953125,-824.21875,0.0024434609527920616,0.003665191429188092,0.0,-2327,-2084,-2091,3820,320,100687
12:18:27.593,16370,-160.15625,497.0703125,-835.9375,0.014660765716752368,0.004886921905584123,-0.014660765716752368,-2336,-2084,-2106,3820,320,100687
12:18:27.614,16371,-163.0859375,492.1875,-844.7265625,-0.0158824961931484,-0.004886921905584123,0.007330382858376184,-2337,-2083,-2104,3820,320,100687
12:18:27.634,16372,-161.1328125,523.4375,-840.8203125,-0.006108652381980153,-0.008552113334772215,0.003665191429188092,-2330,-2082,-2102,3820,320,100687
12:18:27.645,16373,-158.203125,508.7890625,-829.1015625,-0.0024434609527920616,-0.021991148575128554,-0.0012217304763960308,-2331,-2081,-2103,3820,320,100687
12:18:27.665,16374,-161.1328125,493.1640625,-848.6328125,0.008552113334772215,-0.009773843811168246,0.0012217304763960308,-2337,-2080,-2104,3820,320,100687
12:18:27.686,16375,-162.109375,512.6953125,-841.796875,0.006108652381980153,0.009773843811168246,-0.0012217304763960308,-2338,-2079,-2101,3820,320,100687
12:18:27.706,16376,-155.2734375,517.578125,-840.8203125,0.010995574287564277,0.010995574287564277,-0.004886921905584123,-2327,-2082,-2096,3820,320,100687
12:18:27.726,16377,-160.15625,499.0234375,-842.7734375,0.009773843811168246,0.0,-0.008552113334772215,-2334,-2085,-2108,3820,320,100687
12:18:27.737,16378,-163.0859375,497.0703125,-822.265625,0.007330382858376184,0.008552113334772215,-0.008552113334772215,-2328,-2084,-2104,3820,320,100687
12:18:27.757,16379,-166.9921875,500.0,-840.8203125,-0.004886921905584123,0.019547687622336492,-0.003665191429188092,-2335,-2082,-2096,3820,320,100687
12:18:27.777,16380,-160.15625,518.5546875,-829.1015625,0.0,0.01710422666954443,-0.010995574287564277,-2336,-2083,-2093,3820,320,100687
12:18:27.798,16381,-160.15625,516.6015625,-818.359375,0.05986479334340551,0.01832595714594046,-0.0012217304763960308,-2337,-2087,-2091,3820,320,100687
12:18:27.818,16382,-160.15625,491.2109375,-822.265625,0.04642575810304917,0.004886921905584123,-0.0024434609527920616,-2335,-2077,-2105,3820,320,100687
12:18:27.828,16383,-161.1328125,500.0,-841.796875,0.020769418098732523,0.04398229715025711,0.008552113334772215,-2326,-2082,-2105,3820,320,100687
12:18:27.849,16384,-154.296875,517.578125,-818.359375,-0.020769418098732523,0.05742133239061345,0.010995574287564277,-2329,-2085,-2101,3820,320,100687
12:18:27.869,16385,-155.2734375,501.953125,-817.3828125,0.04031710572106901,0.04642575810304917,0.014660765716752368,-2325,-2089,-2102,3820,320,100687
12:18:27.889,16386,-150.390625,488.28125,-847.65625,0.039095375244672985,0.05986479334340551,-0.0024434609527920616,-2330,-2087,-2102,3820,320,100687
12:18:27.899,16387,-143.5546875,509.765625,-846.6796875,-0.020769418098732523,0.07574728953655392,0.039095375244672985,-2328,-2087,-2089,3820,320,100687
12:18:27.920,16388,-149.4140625,556.640625,-846.6796875,0.03543018381548489,0.07330382858376185,0.039095375244672985,-2324,-2087,-2096,3820,320,100687
12:18:27.941,16389,-150.390625,518.5546875,-858.3984375,0.0989601685880785,0.05742133239061345,0.008552113334772215,-2330,-2087,-2107,3820,320,100687
12:18:27.961,16390,-149.4140625,500.0,-851.5625,0.05497787143782139,0.04031710572106901,0.012217304763960306,-2316,-2081,-2095,3820,320,100687
12:18:27.982,16391,-138.671875,503.90625,-844.7265625,0.0024434609527920616,0.05497787143782139,0.025656340004316647,-2325,-2089,-2098,3820,320,100687
12:18:27.992,16392,-141.6015625,498.046875,-857.421875,0.021991148575128554,0.04276056667386108,-0.0012217304763960308,-2322,-2086,-2104,3820,320,100687
12:18:28.124,16393,-147.4609375,503.90625,-862.3046875,-0.010995574287564277,0.021991148575128554,0.0,-2326,-2086,-2099,3820,320,100687
12:18:28.144,16394,-151.3671875,519.53125,-823.2421875,0.007330382858376184,0.03420845333908886,-0.007330382858376184,-2319,-2083,-2098,3820,320,100687
12:18:28.154,16395,-143.5546875,492.1875,-817.3828125,0.12217304763960309,0.039095375244672985,-0.039095375244672985,-2325,-2086,-2109,3820,320,100687
12:18:28.174,16396,-143.5546875,454.1015625,-798.828125,0.11239920382843484,0.08552113334772216,-0.02809980095710871,-2321,-2090,-2105,3820,320,100687
12:18:28.195,16397,-153.3203125,472.65625,-793.9453125,0.10506882097005865,0.12461650859239513,-0.003665191429188092,-2321,-2089,-2099,3820,320,100687
12:18:28.215,16398,-154.296875,473.6328125,-765.625,0.07086036763096978,0.17715091907742447,0.0024434609527920616,-2321,-2090,-2111,3820,320,100687
12:18:28.236,16399,-146.484375,464.84375,-764.6484375,0.05497787143782139,0.24801128670839426,0.03665191429188092,-2327,-2092,-2094,3820,320,100687
12:18:28.246,16400,-152.34375,457.03125,-778.3203125,-0.029321531433504737,0.3090978105281958,0.06230825429619757,-2316,-2093,-2097,3820,320,100687
12:18:28.266,16401,-144.53125,471.6796875,-802.734375,-0.10140362954087055,0.34330626386728463,0.0952949771588904,-2318,-2093,-2095,3820,320,100687
12:18:28.287,16402,-125.0,502.9296875,-816.40625,-0.07208209810736582,0.35185837720205687,0.11239920382843484,-2318,-2087,-2104,3808,320,100688
12:18:28.307,16403,-110.3515625,499.0234375,-808.59375,0.021991148575128554,0.37507125625358145,0.12950343049797927,-2309,-2089,-2111,3808,320,100688
12:18:28.327,16404,-110.3515625,501.953125,-818.359375,0.08185594191853407,0.41416663149825445,0.15149457907310784,-2296,-2084,-2113,3808,320,100688
12:18:28.338,16405,-97.65625,498.046875,-829.1015625,0.20525072003453318,0.40927970959267035,0.1307251609743753,-2292,-2086,-2088,3808,320,100688
12:18:28.358,16406,-83.984375,477.5390625,-834.9609375,0.3457497248200767,0.42394047530942264,0.14172073526193957,-2302,-2090,-2082,3808,320,100688
12:18:28.379,16407,-61.5234375,428.7109375,-822.265625,0.34330626386728463,0.4447098934081552,0.15882496193148402,-2293,-2086,-2084,3808,320,100688
12:18:28.399,16408,-36.1328125,430.6640625,-790.0390625,0.37018433434799736,0.49113565151120436,0.16004669240788005,-2291,-2093,-2080,3808,320,100688
12:18:28.410,16409,-16.6015625,458.984375,-798.828125,0.44837508483734323,0.560774288665778,0.18570303241219668,-2287,-2095,-2072,3808,320,100688
12:18:28.430,16410,-77.1484375,400.390625,-794.921875,0.32375857624494814,0.6426302305843121,0.1954768762233649,-2282,-2099,-2081,3808,320,100688
12:18:28.450,16411,-38.0859375,393.5546875,-761.71875,0.007330382858376184,0.7086036763096979,0.20158552860534507,-2260,-2089,-2077,3808,320,100688
12:18:28.470,16412,27.34375,473.6328125,-793.9453125,0.06841690667817772,0.7244861725028463,0.17959438003021652,-2270,-2099,-2076,3808,320,100688
12:18:28.491,16413,11.71875,494.140625,-797.8515625,0.37507125625358145,0.7880161572754398,0.2223549467040776,-2264,-2100,-2066,3808,320,100688
12:18:28.501,16414,16.6015625,413.0859375,-823.2421875,0.40072759625789806,0.8491026810952413,0.2748893571891069,-2254,-2104,-2072,3808,320,100688
12:18:28.521,16415,33.203125,434.5703125,-829.1015625,0.2846632010002752,0.9175195877734192,0.2675589743307307,-2251,-2109,-2068,3808,320,100688
12:18:28.542,16416,81.0546875,398.4375,-843.75,0.16859880574265224,0.9053022830094588,0.26267205242514663,-2238,-2109,-2076,3808,320,100688
12:18:28.562,16417,91.796875,420.8984375,-847.65625,0.17837264955382048,0.8710938296703699,0.25656340004316647,-2234,-2109,-2074,3808,320,100688
12:18:28.582,16418,107.421875,437.5,-843.75,0.2211332162276816,0.912632665867835,0.27611108766550296,-2212,-2102,-2068,3808,320,100688
12:18:28.592,16419,135.7421875,476.5625,-863.28125,0.31642819338657197,0.9676105373056564,0.24923301718479027,-2226,-2113,-2075,3808,320,100688
12:18:28.613,16420,180.6640625,415.0390625,-879.8828125,0.24556782575560218,0.995710338262765,0.2516764781375823,-2212,-2113,-2073,3808,320,100688
12:18:28.633,16421,166.9921875,375.0,-843.75,0.20525072003453318,1.0018189906447452,0.2748893571891069,-2196,-2115,-2064,3808,320,100688
12:18:28.653,16422,204.1015625,372.0703125,-869.140625,0.15638150097869194,1.0054841820739333,0.3017674276698196,-2178,-2115,-2073,3808,320,100688
12:18:28.664,16423,232.421875,390.625,-851.5625,0.1356120828799594,1.028697061125458,0.29810223624063154,-2178,-2120,-2067,3808,320,100688
12:18:28.684,16424,228.515625,412.109375,-841.796875,0.1905899543177808,1.0665707058937348,0.32253684576855207,-2164,-2124,-2076,3808,320,100688
12:18:28.704,16425,295.8984375,375.0,-851.5625,0.21258110289290938,1.069014166846527,0.31154127148098787,-2161,-2125,-2068,3808,320,100688
12:18:28.724,16426,329.1015625,342.7734375,-864.2578125,0.18570303241219668,1.0983356982800316,0.31764992386296803,-2148,-2129,-2073,3808,320,100688
12:18:28.745,16427,308.59375,371.09375,-856.4453125,0.1905899543177808,1.1875220230569419,0.3335324200561164,-2139,-2132,-2080,3808,320,100688
12:18:28.755,16428,313.4765625,427.734375,-851.5625,0.4789183467472441,1.1924089449625261,0.3335324200561164,-2115,-2126,-2082,3808,320,100688
12:18:28.776,16429,375.9765625,374.0234375,-839.84375,0.7281513639320344,1.1826351011513576,0.3262020371977402,-2118,-2135,-2070,3808,320,100688
12:18:28.796,16430,429.6875,285.15625,-900.390625,0.7745771220350836,1.18507856210415,0.31520646291017596,-2107,-2142,-2074,3808,320,100688
12:18:28.816,16431,395.5078125,252.9296875,-940.4296875,0.9883799554043888,1.2119566325848627,0.3274237676741363,-2094,-2146,-2068,3808,320,100688
12:18:28.837,16432,390.625,369.140625,-869.140625,1.587027888838444,1.1679743354346053,0.3103195410045918,-2081,-2149,-2082,3808,320,100688
12:18:28.847,16433,419.921875,336.9140625,-784.1796875,1.8912387774610557,1.1838568316277538,0.2712241657599188,-2078,-2171,-2079,3808,320,100688
12:18:28.867,16434,423.828125,225.5859375,-778.3203125,1.880243203173491,1.219287015443239,0.2516764781375823,-2063,-2194,-2090,3808,320,100688
12:18:28.888,16435,497.0703125,58.59375,-858.3984375,1.385442360233099,1.3194689145077132,0.2651155133779387,-2057,-2200,-2091,3808,320,100688
12:18:28.908,16436,518.5546875,21.484375,-823.2421875,1.029918791601854,1.2754866173574562,0.3445279943436807,-2043,-2213,-2097,3808,320,100688
12:18:28.918,16437,609.375,143.5546875,-821.2890625,0.956614963018092,1.2241739373488227,0.2577851305195625,-2031,-2232,-2096,3808,320,100688
12:18:28.938,16438,631.8359375,266.6015625,-679.6875,0.9602801544472802,1.4550809973876726,0.2150245638457014,-2021,-2237,-2100,3808,320,100688
12:18:28.959,16439,615.234375,83.984375,-687.5,0.7733553915586875,1.6053538459843844,0.2150245638457014,-2000,-2243,-2102,3808,320,100688
12:18:28.979,16440,595.703125,125.9765625,-704.1015625,0.7880161572754398,1.591914810744028,0.2541199390903744,-1990,-2252,-2107,3808,320,100688
12:18:28.999,16441,680.6640625,169.921875,-665.0390625,0.751364242983559,1.5980234631260082,0.17959438003021652,-1987,-2258,-2116,3808,320,100688
12:18:29.9,16442,717.7734375,127.9296875,-663.0859375,0.55100044485461,1.705535745048859,0.10995574287564278,-1969,-2256,-2123,3808,320,100688
12:18:29.29,16443,725.5859375,34.1796875,-662.109375,0.009773843811168246,1.7311920850531755,0.14538592669112765,-1952,-2264,-2145,3808,320,100688
12:18:29.50,16444,711.9140625,67.3828125,-692.3828125,0.23945917337362205,1.6701055612333742,0.15638150097869194,-1944,-2271,-2148,3808,320,100688
12:18:29.70,16445,775.390625,114.2578125,-675.78125,0.2419026343264141,1.6578882564694137,0.16249015336067207,-1930,-2276,-2150,3808,320,100688
12:18:29.91,16446,840.8203125,110.3515625,-661.1328125,0.18081611050661253,1.7165313193364233,0.1478293876439197,-1904,-2276,-2163,3808,320,100688
12:18:29.101,16447,873.046875,51.7578125,-657.2265625,0.18081611050661253,1.6774359440917503,0.17592918860102844,-1905,-2277,-2162,3808,320,100688
12:18:29.121,16448,890.625,8.7890625,-669.921875,0.20647245051092922,1.6224580726539288,0.1429424657383356,-1889,-2280,-2164,3808,320,100688
12:18:29.142,16449,882.8125,-18.5546875,-646.484375,0.1233947781159991,1.5992451936024044,0.1478293876439197,-1881,-2280,-2180,3808,320,100688
12:18:29.162,16450,951.171875,-7.8125,-640.625,0.0317649923862968,1.5906930802676322,0.16249015336067207,-1866,-2280,-2190,3808,320,100688
12:18:29.182,16451,990.234375,7.8125,-623.046875,0.0158824961931484,1.5687019316925037,0.2101376419401173,-1864,-2282,-2211,3808,320,100688
12:18:29.192,16452,1007.8125,-33.203125,-625.9765625,0.024434609527920613,1.5173892516838703,0.23579398194443396,-1855,-2286,-2215,3814,320,100692
12:18:29.212,16453,1023.4375,-59.5703125,-625.0,-0.007330382858376184,1.4819590678683856,0.2504547476611863,-1848,-2286,-2226,3814,320,100692
12:18:29.233,16454,1014.6484375,-34.1796875,-585.9375,-0.019547687622336492,1.4196508135721877,0.2724458962363148,-1837,-2285,-2232,3814,320,100692
12:18:29.253,16455,952.1484375,-2.9296875,-533.203125,0.029321531433504737,1.3280210278424853,0.3286454981505323,-1832,-2288,-2238,3814,320,100692
12:18:29.263,16456,923.828125,34.1796875,-450.1953125,0.07941248096574201,1.2620475821170998,0.36163222101322506,-1827,-2293,-2254,3814,320,100692
12:18:29.283,16457,915.0390625,83.984375,-411.1328125,0.13316862192716736,1.2082914411556744,0.4068362486398782,-1814,-2288,-2251,3814,320,100692
12:18:29.304,16458,909.1796875,130.859375,-378.90625,0.1710422666954443,1.1826351011513576,0.4056145181634822,-1817,-2302,-2269,3814,320,100692
12:18:29.324,16459,971.6796875,115.234375,-356.4453125,0.15638150097869194,1.1630874135290212,0.3885102914939378,-1807,-2303,-2285,3814,320,100692
12:18:29.344,16460,1054.6875,44.921875,-363.28125,0.16126842288427604,1.152091839241457,0.37018433434799736,-1789,-2301,-2283,3814,320,100692
12:18:29.354,16461,1073.2421875,50.78125,-382.8125,0.22724186860966175,1.0775662801812993,0.3090978105281958,-1801,-2304,-2298,3814,320,100692
12:18:29.375,16462,1047.8515625,86.9140625,-343.75,0.2956587752878394,1.1178833859023682,0.24068090385001806,-1796,-2307,-2303,3814,320,100692
12:18:29.395,16463,1049.8046875,42.96875,-307.6171875,0.35918876006043304,1.0519099401769825,0.16249015336067207,-1789,-2313,-2321,3814,320,100692
12:18:29.415,16464,1063.4765625,-5.859375,-332.03125,0.4544837372193235,1.0421360963658144,0.11606439525762292,-1791,-2312,-2333,3814,320,100692
12:18:29.435,16465,1056.640625,-28.3203125,-341.796875,0.4862487296056202,0.9883799554043888,0.07819075048934597,-1779,-2318,-2334,3814,320,100692
12:18:29.446,16466,1021.484375,-21.484375,-358.3984375,0.5717698629533424,0.8674286382411819,0.039095375244672985,-1783,-2321,-2342,3814,320,100692
12:18:29.466,16467,997.0703125,1.953125,-316.40625,0.6878342582109653,0.7684684696531033,-0.020769418098732523,-1771,-2318,-2347,3814,320,100692
12:18:29.487,16468,990.234375,15.625,-287.109375,0.7147123286916779,0.6621779182066487,-0.07086036763096978,-1753,-2320,-2369,3814,320,100692
12:18:29.507,16469,971.6796875,19.53125,-277.34375,0.7929030791810241,0.5619960191421741,-0.10873401239924674,-1756,-2323,-2358,3814,320,100692
12:18:29.527,16470,993.1640625,43.9453125,-224.609375,0.8429940287132612,0.5045746867515608,-0.1710422666954443,-1770,-2325,-2378,3814,320,100692
12:18:29.538,16471,1041.015625,29.296875,-199.21875,0.955393232541696,0.4166100924510465,-0.2028072590817411,-1773,-2328,-2370,3814,320,100692
12:18:29.558,16472,1072.265625,8.7890625,-193.359375,1.1655308744818131,0.32131511529215606,-0.24068090385001806,-1768,-2329,-2379,3814,320,100692
12:18:29.578,16473,1070.3125,-55.6640625,-157.2265625,1.1765264487693778,0.2895501229058593,-0.3066543495754037,-1770,-2331,-2391,3814,320,100692
12:18:29.599,16474,1068.359375,-82.03125,-123.046875,0.9822713030224087,0.3286454981505323,-0.3078760800517997,-1759,-2333,-2394,3814,320,100692
12:18:29.609,16475,1066.40625,-125.9765625,-71.2890625,0.7159340591680741,0.29688050576423547,-0.3103195410045918,-1762,-2331,-2408,3814,320,100692
12:18:29.630,16476,1026.3671875,-102.5390625,-86.9140625,0.5900958200992829,0.23701571242082997,-0.2736676267127109,-1762,-2333,-2406,3814,320,100692
12:18:29.671,16477,1002.9296875,-75.1953125,-103.515625,0.4618141200776996,0.2296853295624538,-0.24556782575560218,-1764,-2326,-2405,3814,320,100692
12:18:29.692,16478,989.2578125,-75.1953125,-104.4921875,0.3738495257771854,0.24434609527920617,-0.19914206765255302,-1758,-2324,-2415,3814,320,100692
12:18:29.702,16479,993.1640625,-70.3125,-130.859375,0.3090978105281958,0.1954768762233649,-0.1661553447898602,-1758,-2328,-2424,3814,320,100692
12:18:29.722,16480,1005.859375,-75.1953125,-151.3671875,0.31887165433936404,0.14905111812031577,-0.12828170002158323,-1758,-2330,-2421,3814,320,100692
12:18:29.743,16481,1024.4140625,-101.5625,-177.734375,0.24923301718479027,0.0671951762017817,-0.07086036763096978,-1755,-2326,-2415,3814,320,100692
12:18:29.763,16482,1036.1328125,-95.703125,-191.40625,0.12583823906879116,-0.0024434609527920616,-0.019547687622336492,-1754,-2324,-2420,3814,320,100692
12:18:29.773,16483,1041.9921875,-91.796875,-183.59375,-0.0158824961931484,-0.09040805525330627,0.03543018381548489,-1756,-2321,-2413,3814,320,100692
12:18:29.813,16484,1028.3203125,-68.359375,-160.15625,-0.06108652381980154,-0.14905111812031577,0.07696902001294993,-1756,-2324,-2416,3814,320,100692
12:18:29.834,16485,1033.203125,22.4609375,-153.3203125,-0.019547687622336492,-0.18081611050661253,0.08063421144213802,-1753,-2326,-2413,3814,320,100692
12:18:29.854,16486,1026.3671875,53.7109375,-70.3125,0.052534410485029326,-0.14538592669112765,0.04031710572106901,-1758,-2329,-2413,3814,320,100692
12:18:29.864,16487,1019.53125,64.453125,-73.2421875,0.21258110289290938,-0.16126842288427604,0.03420845333908886,-1749,-2328,-2416,3814,320,100692
12:18:29.884,16488,1009.765625,60.546875,-82.03125,0.3652974124424132,-0.16126842288427604,-0.013439035240356337,-1748,-2324,-2423,3814,320,100692
12:18:29.905,16489,1003.90625,16.6015625,-63.4765625,0.3885102914939378,-0.1038470904936626,-0.03298672286269283,-1760,-2323,-2413,3814,320,100692
12:18:29.925,16490,1000.0,-7.8125,-47.8515625,0.31520646291017596,-0.08796459430051422,-0.04153883619746505,-1763,-2328,-2422,3814,320,100692
12:18:29.946,16491,999.0234375,-31.25,-57.6171875,0.17470745812463243,-0.07086036763096978,-0.03420845333908886,-1754,-2324,-2407,3814,320,100692
12:18:29.956,16492,1012.6953125,-41.015625,-52.734375,0.04398229715025711,-0.04031710572106901,-0.0317649923862968,-1754,-2330,-2425,3814,320,100692
12:18:29.976,16493,1024.4140625,-23.4375,-72.265625,-0.04642575810304917,-0.020769418098732523,-0.03054326190990077,-1756,-2325,-2412,3814,320,100692
12:18:29.996,16494,1011.71875,-28.3203125,-95.703125,-0.08429940287132612,0.0158824961931484,-0.020769418098732523,-1758,-2326,-2423,3814,320,100692
12:18:30.89,16495,1010.7421875,-20.5078125,-110.3515625,-0.1038470904936626,0.008552113334772215,-0.009773843811168246,-1744,-2323,-2424,3814,320,100692
12:18:30.110,16496,1008.7890625,-14.6484375,-121.09375,-0.16249015336067207,0.04520402762665313,-0.01832595714594046,-1757,-2324,-2417,3814,320,100692
12:18:30.120,16497,1003.90625,-31.25,-112.3046875,-0.1148426647812269,0.026878070480712675,-0.013439035240356337,-1757,-2328,-2417,3814,320,100692
12:18:30.140,16498,1010.7421875,-23.4375,-119.140625,-0.1111774733520388,0.01832595714594046,-0.004886921905584123,-1756,-2329,-2408,3814,320,100692
12:18:30.161,16499,1023.4375,-24.4140625,-123.046875,-0.1233947781159991,0.014660765716752368,0.020769418098732523,-1757,-2327,-2432,3814,320,100692
12:18:30.181,16500,1028.3203125,-23.4375,-138.671875,-0.11362093430483088,0.0012217304763960308,0.0,-1759,-2329,-2413,3814,320,100692
12:18:30.192,16501,1040.0390625,-9.765625,-125.0,-0.07208209810736582,-0.006108652381980153,-0.02809980095710871,-1756,-2328,-2412,3814,320,100692
12:18:30.212,16502,1041.015625,2.9296875,-141.6015625,-0.02809980095710871,0.004886921905584123,-0.023212879051524585,-1737,-2322,-2426,3814,320,100691
12:18:30.233,16503,1029.296875,-20.5078125,-124.0234375,-0.03543018381548489,-0.004886921905584123,-0.021991148575128554,-1753,-2323,-2422,3814,320,100691
12:18:30.253,16504,1027.34375,-17.578125,-125.0,-0.008552113334772215,-0.019547687622336492,0.0,-1753,-2328,-2409,3814,320,100691
12:18:30.273,16505,1016.6015625,-20.5078125,-123.046875,-0.06963863715457375,-0.020769418098732523,0.0024434609527920616,-1759,-2327,-2416,3814,320,100691
12:18:30.284,16506,1005.859375,-35.15625,-130.859375,-0.08552113334772216,-0.03420845333908886,0.03054326190990077,-1754,-2325,-2415,3814,320,100691
12:18:30.304,16507,998.046875,-39.0625,-132.8125,-0.10873401239924674,-0.04031710572106901,0.03298672286269283,-1760,-2324,-2416,3814,320,100691
12:18:30.324,16508,1010.7421875,6.8359375,-129.8828125,-0.051312680008633295,-0.05742133239061345,0.023212879051524585,-1760,-2325,-2416,3814,320,100691
12:18:30.345,16509,1018.5546875,19.53125,-111.328125,-0.05986479334340551,-0.05375614096142535,0.019547687622336492,-1755,-2321,-2413,3814,320,100691
12:18:30.355,16510,1021.484375,-3.90625,-97.65625,-0.05009094953223726,-0.05742133239061345,0.012217304763960306,-1759,-2324,-2416,3814,320,100691
12:18:30.375,16511,1019.53125,-20.5078125,-125.9765625,-0.048869219055841226,-0.06841690667817772,0.01710422666954443,-1760,-2327,-2417,3814,320,100691
12:18:30.395,16512,1030.2734375,-26.3671875,-131.8359375,-0.07086036763096978,-0.08063421144213802,0.014660765716752368,-1756,-2323,-2419,3814,320,100691
12:18:30.416,16513,1017.578125,-20.5078125,-120.1171875,-0.09285151620609834,-0.07086036763096978,0.04276056667386108,-1759,-2326,-2411,3814,320,100691
12:18:30.436,16514,1002.9296875,-7.8125,-133.7890625,-0.07452555906015788,-0.06230825429619757,0.052534410485029326,-1762,-2324,-2411,3814,320,100691
12:18:30.446,16515,1009.765625,-4.8828125,-119.140625,-0.07819075048934597,-0.05497787143782139,0.04031710572106901,-1759,-2328,-2422,3814,320,100691
12:18:30.467,16516,1016.6015625,-24.4140625,-117.1875,-0.05742133239061345,-0.06841690667817772,0.029321531433504737,-1752,-2331,-2411,3814,320,100691
12:18:30.487,16517,1009.765625,-15.625,-131.8359375,-0.04153883619746505,-0.06841690667817772,0.03420845333908886,-1759,-2329,-2414,3814,320,100691
12:18:30.508,16518,1012.6953125,11.71875,-110.3515625,-0.05497787143782139,-0.05497787143782139,0.024434609527920613,-1755,-2333,-2417,3814,320,100691
12:18:30.528,16519,1019.53125,-7.8125,-113.28125,-0.06108652381980154,-0.03665191429188092,0.024434609527920613,-1756,-2332,-2413,3814,320,100691
12:18:30.538,16520,1023.4375,-28.3203125,-131.8359375,-0.039095375244672985,-0.07208209810736582,0.020769418098732523,-1760,-2330,-2425,3814,320,100691
12:18:30.559,16521,1021.484375,-25.390625,-135.7421875,-0.04031710572106901,-0.04276056667386108,0.014660765716752368,-1759,-2327,-2417,3814,320,100691
12:18:30.579,16522,1023.4375,-35.15625,-135.7421875,-0.04398229715025711,-0.039095375244672985,0.0012217304763960308,-1760,-2335,-2415,3814,320,100691
12:18:30.599,16523,1023.4375,-17.578125,-141.6015625,0.007330382858376184,-0.04031710572106901,0.0024434609527920616,-1744,-2326,-2408,3814,320,100691
12:18:30.610,16524,1014.6484375,-22.4609375,-122.0703125,-0.01710422666954443,-0.02809980095710871,0.0024434609527920616,-1757,-2329,-2400,3814,320,100691
12:18:30.630,16525,1010.7421875,-26.3671875,-125.9765625,-0.003665191429188092,-0.025656340004316647,0.013439035240356337,-1763,-2325,-2406,3814,320,100691
12:18:30.651,16526,1006.8359375,-22.4609375,-116.2109375,-0.02809980095710871,-0.026878070480712675,0.009773843811168246,-1762,-2325,-2395,3814,320,100691
12:18:30.671,16527,1014.6484375,-21.484375,-121.09375,-0.03787364476827696,-0.009773843811168246,0.0012217304763960308,-1759,-2324,-2414,3814,320,100691
12:18:30.691,16528,1008.7890625,-26.3671875,-123.046875,-0.03787364476827696,-0.014660765716752368,0.01832595714594046,-1758,-2327,-2410,3814,320,100691
12:18:30.701,16529,1007.8125,-32.2265625,-141.6015625,-0.03787364476827696,-0.01832595714594046,0.0024434609527920616,-1759,-2324,-2406,3814,320,100691
12:18:30.722,16530,1005.859375,-8.7890625,-131.8359375,0.006108652381980153,-0.012217304763960306,0.0158824961931484,-1744,-2322,-2404,3814,320,100691
12:18:30.742,16531,1008.7890625,-13.671875,-119.140625,-0.01832595714594046,0.009773843811168246,-0.0012217304763960308,-1763,-2326,-2404,3814,320,100691
12:18:30.762,16532,1010.7421875,-26.3671875,-128.90625,-0.007330382858376184,0.004886921905584123,-0.020769418098732523,-1740,-2321,-2410,3814,320,100691
12:18:30.783,16533,1008.7890625,-31.25,-137.6953125,-0.03054326190990077,-0.01710422666954443,0.0012217304763960308,-1764,-2327,-2406,3814,320,100691
12:18:30.793,16534,1014.6484375,-12.6953125,-141.6015625,-0.0158824961931484,0.0012217304763960308,-0.0012217304763960308,-1750,-2324,-2405,3814,320,100691
12:18:30.813,16535,1019.53125,-8.7890625,-122.0703125,-0.025656340004316647,0.004886921905584123,0.003665191429188092,-1760,-2332,-2402,3814,320,100691
12:18:30.833,16536,1016.6015625,-6.8359375,-133.7890625,0.04398229715025711,0.0,-0.025656340004316647,-1760,-2331,-2401,3814,320,100691
12:18:30.853,16537,1015.625,-17.578125,-117.1875,0.004886921905584123,0.008552113334772215,-0.024434609527920613,-1749,-2325,-2405,3814,320,100691
12:18:30.874,16538,1018.5546875,-27.34375,-142.578125,0.008552113334772215,0.007330382858376184,-0.0158824961931484,-1759,-2331,-2412,3814,320,100691
12:18:30.884,16539,1011.71875,-24.4140625,-129.8828125,0.01710422666954443,0.006108652381980153,-0.0158824961931484,-1762,-2331,-2397,3814,320,100691
12:18:30.996,16540,1025.390625,-20.5078125,-127.9296875,-0.010995574287564277,0.0158824961931484,-0.01832595714594046,-1763,-2326,-2403,3814,320,100691
12:18:31.17,16541,1038.0859375,-13.671875,-110.3515625,0.0,0.03298672286269283,-0.019547687622336492,-1762,-2324,-2399,3814,320,100691
12:18:31.37,16542,1027.34375,-27.34375,-121.09375,-0.013439035240356337,0.03054326190990077,-0.019547687622336492,-1760,-2324,-2395,3814,320,100691
12:18:31.47,16543,1017.578125,-26.3671875,-125.0,-0.009773843811168246,0.05009094953223726,0.012217304763960306,-1762,-2324,-2403,3814,320,100691
12:18:31.68,16544,985.3515625,-31.25,-125.0,-0.014660765716752368,0.05619960191421742,0.021991148575128554,-1754,-2322,-2412,3814,320,100691
12:18:31.88,16545,998.046875,-32.2265625,-135.7421875,-0.009773843811168246,0.0476474885794452,0.04276056667386108,-1760,-2329,-2407,3814,320,100691
12:18:31.108,16546,993.1640625,-27.34375,-131.8359375,0.003665191429188092,0.01832595714594046,0.051312680008633295,-1754,-2327,-2411,3814,320,100691
12:18:31.118,16547,997.0703125,-5.859375,-116.2109375,0.0,0.04520402762665313,0.014660765716752368,-1758,-2328,-2398,3814,320,100691
12:18:31.139,16548,1000.9765625,-15.625,-113.28125,0.010995574287564277,0.048869219055841226,0.020769418098732523,-1760,-2330,-2419,3814,320,100691
12:18:31.159,16549,1000.9765625,-27.34375,-126.953125,0.06108652381980154,0.01710422666954443,0.01832595714594046,-1759,-2322,-2407,3814,320,100691
12:18:31.180,16550,1001.953125,-55.6640625,-136.71875,0.0476474885794452,-0.0012217304763960308,0.020769418098732523,-1762,-2332,-2415,3814,320,100691
12:18:31.200,16551,1029.296875,-49.8046875,-140.625,0.025656340004316647,-0.0158824961931484,0.008552113334772215,-1754,-2324,-2408,3814,320,100691
12:18:31.211,16552,1043.9453125,-35.15625,-136.71875,-0.052534410485029326,-0.01710422666954443,0.014660765716752368,-1761,-2327,-2406,3808,320,100694
12:18:31.231,16553,1041.015625,-14.6484375,-134.765625,-0.08429940287132612,0.0,0.013439035240356337,-1760,-2329,-2420,3808,320,100694
12:18:31.252,16554,1028.3203125,-25.390625,-140.625,-0.06597344572538566,-0.0158824961931484,0.008552113334772215,-1761,-2332,-2408,3808,320,100694
12:18:31.272,16555,1009.765625,-23.4375,-141.6015625,-0.0476474885794452,-0.039095375244672985,0.0,-1749,-2330,-2415,3808,320,100694
12:18:31.292,16556,1004.8828125,-10.7421875,-126.953125,-0.04031710572106901,-0.039095375244672985,0.0024434609527920616,-1759,-2330,-2407,3808,320,100694
12:18:31.303,16557,1010.7421875,1.953125,-107.421875,-0.04031710572106901,-0.04398229715025711,0.0012217304763960308,-1765,-2331,-2409,3808,320,100694
12:18:31.323,16558,1006.8359375,-15.625,-119.140625,-0.03298672286269283,-0.06230825429619757,0.0012217304763960308,-1744,-2326,-2408,3808,320,100694
12:18:31.344,16559,1004.8828125,-25.390625,-122.0703125,-0.05375614096142535,-0.07208209810736582,0.0024434609527920616,-1764,-2332,-2424,3808,320,100694
12:18:31.364,16560,1006.8359375,-29.296875,-129.8828125,-0.048869219055841226,-0.03665191429188092,0.008552113334772215,-1763,-2331,-2412,3808,320,100694
12:18:31.374,16561,1007.8125,-26.3671875,-141.6015625,-0.03054326190990077,-0.04153883619746505,0.010995574287564277,-1753,-2331,-2410,3808,320,100694
12:18:31.395,16562,1010.7421875,1.953125,-129.8828125,-0.013439035240356337,-0.026878070480712675,-0.0012217304763960308,-1757,-2329,-2409,3808,320,100694
12:18:31.415,16563,1020.5078125,-9.765625,-109.375,0.0,-0.04031710572106901,-0.0024434609527920616,-1760,-2333,-2415,3808,320,100694
12:18:31.436,16564,1007.8125,-24.4140625,-117.1875,0.023212879051524585,-0.03420845333908886,-0.0012217304763960308,-1762,-2330,-2406,3808,320,100694
12:18:31.456,16565,1005.859375,-36.1328125,-128.90625,0.0024434609527920616,-0.029321531433504737,0.0,-1747,-2320,-2411,3808,320,100694
12:18:31.466,16566,1011.71875,-19.53125,-125.0,0.006108652381980153,-0.020769418098732523,0.0012217304763960308,-1760,-2328,-2404,3808,320,100694
12:18:31.487,16567,1008.7890625,-9.765625,-118.1640625,-0.021991148575128554,0.0,0.0024434609527920616,-1760,-2329,-2414,3808,320,100694
12:18:31.507,16568,1012.6953125,-24.4140625,-117.1875,0.013439035240356337,0.0024434609527920616,0.006108652381980153,-1759,-2335,-2403,3808,320,100694
12:18:31.528,16569,1008.7890625,-26.3671875,-112.3046875,-0.004886921905584123,0.020769418098732523,-0.0024434609527920616,-1763,-2330,-2406,3808,320,100694
12:18:31.548,16570,1007.8125,-29.296875,-127.9296875,0.023212879051524585,0.013439035240356337,0.004886921905584123,-1762,-2333,-2403,3808,320,100694
12:18:31.558,16571,1013.671875,-13.671875,-138.671875,0.04276056667386108,0.012217304763960306,0.029321531433504737,-1763,-2337,-2408,3808,320,100694
12:18:31.578,16572,1007.8125,-23.4375,-119.140625,0.023212879051524585,0.039095375244672985,0.01710422666954443,-1754,-2333,-2399,3808,320,100694
12:18:31.599,16573,1016.6015625,-29.296875,-119.140625,0.03665191429188092,0.03665191429188092,0.0012217304763960308,-1761,-2328,-2405,3808,320,100694
12:18:31.619,16574,1008.7890625,-45.8984375,-128.90625,0.014660765716752368,0.013439035240356337,0.008552113334772215,-1762,-2335,-2411,3808,320,100694
12:18:31.629,16575,1011.71875,-52.734375,-136.71875,-0.0024434609527920616,0.006108652381980153,0.007330382858376184,-1763,-2325,-2402,3808,320,100694
12:18:31.650,16576,1016.6015625,-30.2734375,-129.8828125,-0.03298672286269283,0.03054326190990077,0.008552113334772215,-1759,-2330,-2417,3808,320,100694
12:18:31.670,16577,1006.8359375,-30.2734375,-133.7890625,-0.03787364476827696,0.02809980095710871,0.0,-1760,-2329,-2409,3808,320,100694
12:18:31.690,16578,1011.71875,-13.671875,-116.2109375,-0.021991148575128554,0.008552113334772215,-0.0012217304763960308,-1761,-2328,-2403,3808,320,100694
12:18:31.711,16579,1004.8828125,-34.1796875,-126.953125,-0.021991148575128554,-0.008552113334772215,-0.012217304763960306,-1754,-2327,-2411,3808,320,100694
12:18:31.722,16580,1009.765625,-38.0859375,-133.7890625,-0.014660765716752368,-0.0158824961931484,-0.0012217304763960308,-1762,-2323,-2398,3808,320,100694
12:18:31.742,16581,1006.8359375,-28.3203125,-134.765625,-0.021991148575128554,-0.014660765716752368,0.0,-1761,-2327,-2412,3808,320,100694
12:18:31.763,16582,1012.6953125,-41.015625,-140.625,-0.03543018381548489,-0.0158824961931484,-0.004886921905584123,-1760,-2334,-2414,3808,320,100694
12:18:31.783,16583,1031.25,-20.5078125,-165.0390625,0.021991148575128554,-0.020769418098732523,0.0,-1758,-2328,-2407,3808,320,100694
12:18:31.793,16584,1024.4140625,17.578125,-112.3046875,-0.01832595714594046,-0.021991148575128554,-0.04153883619746505,-1761,-2333,-2401,3808,320,100694
12:18:31.813,16585,1015.625,28.3203125,-87.890625,0.09651670763528641,-0.009773843811168246,-0.05375614096142535,-1758,-2330,-2412,3808,320,100694
12:18:31.833,16586,1002.9296875,-26.3671875,-102.5390625,0.16982053621904827,-0.007330382858376184,-0.052534410485029326,-1758,-2331,-2400,3808,320,100694
12:18:31.854,16587,998.046875,-93.75,-136.71875,0.029321531433504737,-0.010995574287564277,-0.0012217304763960308,-1762,-2337,-2406,3808,320,100694
12:18:31.874,16588,1000.9765625,-58.59375,-146.484375,-0.11362093430483088,-0.008552113334772215,0.004886921905584123,-1762,-2332,-2409,3808,320,100694
12:18:31.905,16589,1018.5546875,3.90625,-134.765625,-0.13316862192716736,0.009773843811168246,-0.0024434609527920616,-1757,-2325,-2412,3808,320,100694
12:18:31.925,16590,1028.3203125,14.6484375,-121.09375,0.004886921905584123,0.0012217304763960308,-0.012217304763960306,-1757,-2326,-2406,3808,320,100694
12:18:31.946,16591,1018.5546875,-17.578125,-122.0703125,0.09773843811168245,-0.020769418098732523,-0.013439035240356337,-1761,-2329,-2408,3808,320,100694
12:18:31.956,16592,1000.9765625,-41.9921875,-130.859375,0.0952949771588904,-0.008552113334772215,-0.004886921905584123,-1760,-2326,-2413,3808,320,100694
12:18:31.977,16593,1006.8359375,-45.8984375,-121.09375,-0.0024434609527920616,0.01832595714594046,0.003665191429188092,-1757,-2329,-2407,3808,320,100694
12:18:31.997,16594,1007.8125,-44.921875,-124.0234375,-0.03543018381548489,0.0024434609527920616,0.014660765716752368,-1763,-2326,-2414,3808,320,100694
12:18:32.18,16595,1005.859375,-31.25,-130.859375,-0.019547687622336492,-0.01832595714594046,0.006108652381980153,-1762,-2332,-2402,3808,320,100694
12:18:32.49,16596,1007.8125,-28.3203125,-125.9765625,0.003665191429188092,0.003665191429188092,0.009773843811168246,-1749,-2326,-2404,3808,320,100694
12:18:32.69,16597,1010.7421875,-23.4375,-124.0234375,0.039095375244672985,0.007330382858376184,-0.007330382858376184,-1743,-2327,-2409,3808,320,100694
12:18:32.90,16598,1008.7890625,-29.296875,-114.2578125,0.024434609527920613,0.004886921905584123,0.0,-1761,-2328,-2405,3808,320,100694
12:18:32.110,16599,1009.765625,-40.0390625,-115.234375,0.04642575810304917,-0.003665191429188092,0.0,-1758,-2331,-2413,3808,320,100694
12:18:32.120,16600,1015.625,-47.8515625,-119.140625,-0.013439035240356337,0.009773843811168246,0.023212879051524585,-1750,-2332,-2403,3808,320,100694
12:18:32.140,16601,1018.5546875,-46.875,-127.9296875,-0.11362093430483088,0.0158824961931484,0.025656340004316647,-1761,-2338,-2414,3808,320,100694
12:18:32.161,16602,1024.4140625,-19.53125,-131.8359375,-0.13683381335635544,0.007330382858376184,0.014660765716752368,-1757,-2331,-2415,3814,320,100692
12:18:32.182,16603,1018.5546875,-1.953125,-115.234375,-0.058643062867009474,0.009773843811168246,-0.012217304763960306,-1756,-2336,-2411,3814,320,100692
12:18:32.202,16604,1016.6015625,-26.3671875,-121.09375,0.003665191429188092,-0.003665191429188092,0.004886921905584123,-1765,-2332,-2428,3814,320,100692
12:18:32.212,16605,1004.8828125,-45.8984375,-130.859375,-0.003665191429188092,0.006108652381980153,-0.006108652381980153,-1761,-2333,-2410,3814,320,100692
12:18:32.233,16606,1008.7890625,-45.8984375,-129.8828125,-0.07086036763096978,0.019547687622336492,0.0,-1758,-2334,-2422,3814,320,100692
12:18:32.324,16607,1014.6484375,-11.71875,-121.09375,-0.08918632477691024,0.01832595714594046,0.003665191429188092,-1746,-2328,-2417,3814,320,100692
12:18:32.344,16608,1013.671875,-28.3203125,-101.5625,-0.0867428638241182,0.006108652381980153,-0.004886921905584123,-1756,-2332,-2419,3814,320,100692
12:18:32.365,16609,1013.671875,-42.96875,-120.1171875,-0.04153883619746505,0.006108652381980153,-0.0012217304763960308,-1763,-2333,-2413,3814,320,100692
12:18:32.375,16610,1011.71875,-55.6640625,-120.1171875,-0.09651670763528641,0.009773843811168246,-0.023212879051524585,-1758,-2335,-2412,3814,320,100692
12:18:32.396,16611,1006.8359375,-64.453125,-117.1875,-0.2101376419401173,0.020769418098732523,0.0012217304763960308,-1755,-2332,-2417,3814,320,100692
12:18:32.416,16612,1008.7890625,-54.6875,-114.2578125,-0.2700024352835228,0.014660765716752368,0.019547687622336492,-1759,-2330,-2415,3814,320,100692
12:18:32.437,16613,1011.71875,-35.15625,-122.0703125,-0.2651155133779387,0.0158824961931484,0.0158824961931484,-1761,-2332,-2412,3814,320,100692
12:18:32.457,16614,1008.7890625,-29.296875,-126.953125,-0.2577851305195625,0.021991148575128554,0.0158824961931484,-1761,-2331,-2407,3814,320,100692
12:18:32.468,16615,1009.765625,-22.4609375,-133.7890625,-0.2076941809873252,-0.004886921905584123,0.0,-1758,-2333,-2411,3814,320,100692
12:18:32.488,16616,1013.671875,-24.4140625,-109.375,-0.20525072003453318,-0.0024434609527920616,-0.009773843811168246,-1763,-2330,-2395,3814,320,100692
12:18:32.540,16617,1007.8125,-17.578125,-128.90625,-0.1661553447898602,0.0012217304763960308,-0.010995574287564277,-1755,-2327,-2401,3814,320,100692
12:18:32.560,16618,1019.53125,-22.4609375,-125.9765625,-0.15271630954950383,0.003665191429188092,-0.0012217304763960308,-1763,-2332,-2405,3814,320,100692
12:18:32.581,16619,1013.671875,0.9765625,-110.3515625,-0.12828170002158323,0.010995574287564277,-0.0024434609527920616,-1756,-2329,-2414,3814,320,100692
12:18:32.602,16620,1010.7421875,-9.765625,-110.3515625,-0.11850785621041499,0.004886921905584123,-0.006108652381980153,-1755,-2330,-2407,3814,320,100692
12:18:32.612,16621,1016.6015625,-24.4140625,-119.140625,-0.08796459430051422,0.0024434609527920616,-0.012217304763960306,-1756,-2327,-2405,3814,320,100692
12:18:32.632,16622,1022.4609375,-30.2734375,-117.1875,-0.1038470904936626,0.006108652381980153,0.0012217304763960308,-1762,-2328,-2396,3814,320,100692
12:18:32.653,16623,1028.3203125,-23.4375,-122.0703125,-0.09407324668249437,0.0,0.01710422666954443,-1762,-2328,-2394,3814,320,100692
12:18:32.673,16624,1027.34375,-9.765625,-121.09375,-0.07208209810736582,-0.019547687622336492,0.0012217304763960308,-1762,-2324,-2407,3814,320,100692
12:18:32.694,16625,1035.15625,-12.6953125,-131.8359375,-0.0476474885794452,-0.03054326190990077,0.0012217304763960308,-1764,-2331,-2404,3814,320,100692
12:18:32.704,16626,1027.34375,-9.765625,-134.765625,-0.05742133239061345,-0.025656340004316647,-0.0024434609527920616,-1764,-2328,-2394,3814,320,100692
12:18:32.724,16627,1015.625,-15.625,-132.8125,-0.03054326190990077,-0.0024434609527920616,0.0,-1760,-2324,-2408,3814,320,100692
12:18:32.745,16628,1011.71875,-12.6953125,-128.90625,0.003665191429188092,-0.02809980095710871,0.0,-1758,-2320,-2400,3814,320,100692
12:18:32.765,16629,1016.6015625,-21.484375,-132.8125,0.04153883619746505,-0.03543018381548489,-0.0024434609527920616,-1762,-2324,-2409,3814,320,100692
12:18:32.785,16630,1021.484375,5.859375,-135.7421875,0.052534410485029326,-0.029321531433504737,-0.003665191429188092,-1760,-2323,-2396,3814,320,100692
12:18:32.796,16631,1016.6015625,-6.8359375,-128.90625,0.04398229715025711,-0.05009094953223726,-0.003665191429188092,-1764,-2322,-2414,3814,320,100692
12:18:32.816,16632,1027.34375,-15.625,-132.8125,0.0830776723949301,-0.04642575810304917,-0.029321531433504737,-1759,-2326,-2410,3814,320,100692
12:18:32.836,16633,1028.3203125,-39.0625,-130.859375,0.09162978572970232,-0.06230825429619757,-0.04520402762665313,-1763,-2324,-2400,3814,320,100692
12:18:32.856,16634,1030.2734375,-41.9921875,-137.6953125,0.058643062867009474,-0.06841690667817772,-0.04520402762665313,-1759,-2326,-2414,3814,320,100692
12:18:32.958,16635,1034.1796875,-30.2734375,-130.859375,0.03420845333908886,-0.06230825429619757,-0.05619960191421742,-1752,-2319,-2399,3814,320,100692
12:18:32.978,16636,1029.296875,-41.015625,-135.7421875,0.05009094953223726,-0.06963863715457375,-0.06475171524898964,-1759,-2324,-2409,3814,320,100692
12:18:32.998,16637,1020.5078125,-47.8515625,-131.8359375,0.04153883619746505,-0.0867428638241182,-0.07452555906015788,-1764,-2324,-2393,3814,320,100692
12:18:33.19,16638,1006.8359375,-54.6875,-129.8828125,0.024434609527920613,-0.09407324668249437,-0.07941248096574201,-1759,-2323,-2400,3814,320,100692
12:18:33.39,16639,1000.0,-44.921875,-121.09375,-0.03420845333908886,-0.10629055144645469,-0.0830776723949301,-1758,-2320,-2386,3814,320,100692
12:18:33.49,16640,999.0234375,-32.2265625,-117.1875,-0.06475171524898964,-0.1148426647812269,-0.09773843811168245,-1763,-2322,-2406,3814,320,100692
12:18:33.69,16641,1000.9765625,-25.390625,-119.140625,-0.09040805525330627,-0.09162978572970232,-0.08796459430051422,-1757,-2322,-2403,3814,320,100692
12:18:33.90,16642,1004.8828125,-22.4609375,-111.328125,-0.11728612573401895,-0.1038470904936626,-0.09285151620609834,-1754,-2317,-2395,3814,320,100692
12:18:33.111,16643,1010.7421875,-38.0859375,-113.28125,-0.1466076571675237,-0.09651670763528641,-0.0867428638241182,-1758,-2320,-2390,3814,320,100692
12:18:33.121,16644,1015.625,-61.5234375,-132.8125,-0.1942551457469689,-0.10262536001726659,-0.08063421144213802,-1758,-2316,-2392,3814,320,100692
12:18:33.141,16645,1025.390625,-48.828125,-135.7421875,-0.2516764781375823,-0.08918632477691024,-0.07696902001294993,-1761,-2316,-2385,3814,320,100692
12:18:33.162,16646,1028.3203125,-32.2265625,-125.9765625,-0.3335324200561164,-0.06230825429619757,-0.07574728953655392,-1749,-2307,-2389,3814,320,100692
12:18:33.183,16647,1016.6015625,-24.4140625,-119.140625,-0.35796702958403703,-0.05497787143782139,-0.05375614096142535,-1761,-2309,-2390,3814,320,100692
12:18:33.203,16648,999.0234375,-18.5546875,-123.046875,-0.34941491624926485,-0.05375614096142535,-0.03298672286269283,-1759,-2312,-2388,3814,320,100692
12:18:33.213,16649,986.328125,-25.390625,-130.859375,-0.37140606482439337,-0.04153883619746505,-0.021991148575128554,-1746,-2302,-2390,3814,320,100692
12:18:33.234,16650,1000.0,-28.3203125,-129.8828125,-0.3738495257771854,-0.03420845333908886,-0.020769418098732523,-1760,-2307,-2387,3814,320,100692
12:18:33.254,16651,997.0703125,-23.4375,-132.8125,-0.43615778007338296,-0.01710422666954443,0.0,-1760,-2310,-2391,3814,320,100692
12:18:33.275,16652,996.09375,-6.8359375,-136.71875,-0.4703662334124718,-0.029321531433504737,0.0158824961931484,-1760,-2305,-2387,3814,320,100689
12:18:33.285,16653,989.2578125,-4.8828125,-128.90625,-0.514348530562729,-0.006108652381980153,0.006108652381980153,-1762,-2305,-2381,3814,320,100689
12:18:33.305,16654,1000.0,-1.953125,-140.625,-0.5070181477043528,-0.003665191429188092,0.020769418098732523,-1754,-2302,-2387,3814,320,100689
12:18:33.325,16655,1007.8125,-8.7890625,-141.6015625,-0.5253441048502933,-0.0012217304763960308,0.02809980095710871,-1758,-2300,-2378,3814,320,100689
12:18:33.346,16656,1015.625,9.765625,-151.3671875,-0.5314527572322734,0.009773843811168246,0.058643062867009474,-1751,-2297,-2385,3814,320,100689
12:18:33.377,16657,1020.5078125,19.53125,-141.6015625,-0.5302310267558774,0.020769418098732523,0.06475171524898964,-1754,-2301,-2378,3814,320,100689
12:18:33.397,16658,1015.625,34.1796875,-148.4375,-0.5131268000863329,0.03543018381548489,0.08918632477691024,-1758,-2299,-2380,3814,320,100689
12:18:33.417,16659,1020.5078125,64.453125,-148.4375,-0.46670104198328377,0.051312680008633295,0.1343903524035634,-1758,-2302,-2383,3814,320,100689
12:18:33.437,16660,1026.3671875,68.359375,-149.4140625,-0.4202752838802346,0.03665191429188092,0.15760323145508798,-1748,-2298,-2371,3814,320,100689
12:18:33.458,16661,1024.4140625,78.125,-148.4375,-0.32375857624494814,0.03054326190990077,0.19303341527057283,-1762,-2302,-2370,3814,320,100689
12:18:33.468,16662,1023.4375,76.171875,-155.2734375,-0.22846359908605776,0.023212879051524585,0.18570303241219668,-1759,-2304,-2367,3814,320,100689
12:18:33.488,16663,1015.625,50.78125,-140.625,-0.2138028333693054,0.05986479334340551,0.15760323145508798,-1755,-2305,-2383,3814,320,100689
12:18:33.508,16664,1015.625,10.7421875,-150.390625,-0.18325957145940464,0.039095375244672985,0.13316862192716736,-1761,-2311,-2379,3814,320,100689
12:18:33.529,16665,1007.8125,-5.859375,-154.296875,-0.16982053621904827,0.020769418098732523,0.13805554383275148,-1763,-2307,-2369,3814,320,100689
12:18:33.539,16666,1013.671875,-15.625,-142.578125,-0.1954768762233649,0.012217304763960306,0.0952949771588904,-1759,-2309,-2381,3814,320,100689
12:18:33.559,16667,1004.8828125,-5.859375,-153.3203125,-0.22479840765686968,0.013439035240356337,0.08185594191853407,-1741,-2299,-2364,3814,320,100689
12:18:33.580,16668,1002.9296875,-6.8359375,-152.34375,-0.2345722514680379,0.007330382858376184,0.02809980095710871,-1765,-2303,-2362,3814,320,100689
12:18:33.600,16669,1001.953125,11.71875,-148.4375,-0.2113593724165133,0.008552113334772215,0.004886921905584123,-1764,-2303,-2369,3814,320,100689
12:18:33.621,16670,1024.4140625,3.90625,-135.7421875,-0.25900686099595854,0.0,-0.014660765716752368,-1758,-2302,-2369,3814,320,100689
12:18:33.631,16671,1033.203125,26.3671875,-146.484375,-0.2296853295624538,-0.014660765716752368,-0.014660765716752368,-1761,-2298,-2380,3814,320,100689
12:18:33.651,16672,1030.2734375,20.5078125,-142.578125,-0.2724458962363148,-0.0012217304763960308,-0.051312680008633295,-1766,-2297,-2375,3814,320,100689
12:18:33.672,16673,1023.4375,20.5078125,-163.0859375,-0.2431243648028101,-0.019547687622336492,-0.03543018381548489,-1763,-2302,-2361,3814,320,100689
12:18:33.692,16674,1021.484375,31.25,-166.9921875,-0.19303341527057283,-0.021991148575128554,-0.04153883619746505,-1760,-2299,-2367,3814,320,100689
12:18:33.713,16675,1025.390625,45.8984375,-158.203125,-0.16004669240788005,-0.0158824961931484,-0.020769418098732523,-1765,-2298,-2369,3814,320,100689
12:18:33.723,16676,1029.296875,54.6875,-168.9453125,-0.13316862192716736,-0.006108652381980153,0.0,-1764,-2302,-2372,3814,320,100689
12:18:33.743,16677,1007.8125,79.1015625,-155.2734375,-0.0635299847725936,-0.025656340004316647,0.023212879051524585,-1751,-2294,-2371,3814,320,100689
12:18:33.764,16678,994.140625,88.8671875,-147.4609375,-0.014660765716752368,-0.020769418098732523,0.039095375244672985,-1763,-2299,-2371,3814,320,100689
12:18:33.784,16679,980.46875,76.171875,-149.4140625,0.07574728953655392,0.003665191429188092,0.03543018381548489,-1765,-2301,-2371,3814,320,100689
12:18:33.794,16680,983.3984375,42.96875,-163.0859375,0.12950343049797927,-0.025656340004316647,0.01832595714594046,-1763,-2300,-2360,3814,320,100689
12:18:33.815,16681,991.2109375,30.2734375,-163.0859375,0.15271630954950383,-0.04520402762665313,0.010995574287564277,-1760,-2298,-2365,3814,320,100689
12:18:33.835,16682,1001.953125,18.5546875,-166.015625,0.1392772743091475,-0.04153883619746505,0.01710422666954443,-1765,-2299,-2379,3814,320,100689
12:18:33.855,16683,1010.7421875,9.765625,-166.015625,0.15638150097869194,-0.03420845333908886,0.0024434609527920616,-1760,-2301,-2367,3814,320,100689
12:18:33.876,16684,1014.6484375,10.7421875,-169.921875,0.1710422666954443,-0.0317649923862968,0.0,-1745,-2295,-2368,3814,320,100689
12:18:33.886,16685,1013.671875,29.296875,-160.15625,0.2076941809873252,-0.04398229715025711,-0.029321531433504737,-1762,-2301,-2362,3814,320,100689
12:18:33.906,16686,1007.8125,21.484375,-164.0625,0.2138028333693054,-0.021991148575128554,-0.039095375244672985,-1761,-2301,-2369,3814,320,100689
12:18:33.927,16687,997.0703125,15.625,-165.0390625,0.197920337176157,-0.003665191429188092,-0.04031710572106901,-1761,-2304,-2371,3814,320,100689
12:18:33.947,16688,978.515625,24.4140625,-152.34375,0.20525072003453318,-0.0158824961931484,-0.06108652381980154,-1765,-2304,-2364,3814,320,100689
12:18:33.968,16689,976.5625,29.296875,-138.671875,0.24434609527920617,-0.02809980095710871,-0.052534410485029326,-1762,-2301,-2369,3814,320,100689
12:18:33.978,16690,992.1875,41.9921875,-139.6484375,0.278554548618295,-0.023212879051524585,-0.06963863715457375,-1764,-2305,-2364,3814,320,100689
12:18:33.998,16691,999.0234375,49.8046875,-138.671875,0.2858849314766712,-0.01832595714594046,-0.058643062867009474,-1755,-2300,-2362,3814,320,100689
12:18:34.19,16692,1000.0,28.3203125,-137.6953125,0.2687807048071268,-0.008552113334772215,-0.09285151620609834,-1764,-2305,-2363,3814,320,100689
12:18:34.39,16693,1013.671875,17.578125,-144.53125,0.3029891581462157,-0.003665191429188092,-0.07696902001294993,-1763,-2306,-2369,3814,320,100689
12:18:34.50,16694,1032.2265625,28.3203125,-141.6015625,0.3897320219703338,-0.025656340004316647,-0.07452555906015788,-1763,-2307,-2372,3814,320,100689
12:18:34.70,16695,1044.921875,55.6640625,-118.1640625,0.4300491276914028,-0.04398229715025711,-0.03054326190990077,-1761,-2306,-2365,3814,320,100689
12:18:34.91,16696,1042.96875,54.6875,-126.953125,0.5021312257987687,-0.03665191429188092,-0.008552113334772215,-1759,-2308,-2358,3814,320,100689
12:18:34.111,16697,1041.9921875,60.546875,-142.578125,0.5668829410477583,-0.03543018381548489,0.0,-1766,-2309,-2369,3814,320,100689
12:18:34.132,16698,1050.78125,39.0625,-131.8359375,0.6536258048718764,-0.0671951762017817,0.0158824961931484,-1762,-2304,-2374,3814,320,100689
12:18:34.142,16699,1041.9921875,17.578125,-130.859375,0.7342600163140146,-0.0635299847725936,0.020769418098732523,-1766,-2311,-2383,3814,320,100689
12:18:34.162,16700,1030.2734375,-11.71875,-130.859375,0.7403686686959947,-0.03665191429188092,-0.008552113334772215,-1766,-2312,-2376,3814,320,100689
12:18:34.183,16701,1015.625,-46.875,-123.046875,0.7415903991723907,-0.0317649923862968,-0.058643062867009474,-1762,-2316,-2378,3814,320,100689
12:18:34.203,16702,1007.8125,-76.171875,-121.09375,0.6743952229706089,-0.0635299847725936,-0.09773843811168245,-1765,-2315,-2383,3808,321,100694
12:18:34.213,16703,1001.953125,-88.8671875,-120.1171875,0.597426202957659,-0.07941248096574201,-0.1392772743091475,-1768,-2314,-2381,3808,321,100694
12:18:34.234,16704,1000.0,-71.2890625,-130.859375,0.4862487296056202,-0.05497787143782139,-0.1551597705022959,-1766,-2317,-2381,3808,321,100694
12:18:34.254,16705,990.234375,-65.4296875,-151.3671875,0.41294490102185843,-0.07819075048934597,-0.1661553447898602,-1754,-2315,-2384,3808,321,100694
12:18:34.274,16706,1007.8125,-35.15625,-152.34375,0.37140606482439337,-0.06963863715457375,-0.17470745812463243,-1765,-2323,-2379,3808,321,100694
12:18:34.295,16707,1012.6953125,-17.578125,-149.4140625,0.3445279943436807,-0.05375614096142535,-0.17470745812463243,-1762,-2322,-2383,3808,321,100694
12:18:34.305,16708,1022.4609375,-23.4375,-146.484375,0.3445279943436807,-0.020769418098732523,-0.1551597705022959,-1764,-2319,-2384,3808,321,100694
12:18:34.325,16709,1006.8359375,-19.53125,-153.3203125,0.35430183815484895,-0.003665191429188092,-0.1307251609743753,-1762,-2321,-2386,3808,321,100694
12:18:34.346,16710,1000.9765625,-17.578125,-144.53125,0.33108895910332437,0.0024434609527920616,-0.10506882097005865,-1758,-2321,-2394,3808,321,100694
12:18:34.367,16711,998.046875,-9.765625,-130.859375,0.3323106895797204,-0.004886921905584123,-0.09773843811168245,-1760,-2320,-2380,3808,321,100694
12:18:34.387,16712,1004.8828125,-23.4375,-135.7421875,0.35430183815484895,0.0012217304763960308,-0.06963863715457375,-1750,-2316,-2396,3808,321,100694
12:18:34.418,16713,1021.484375,-38.0859375,-150.390625,0.33964107243809655,0.008552113334772215,-0.058643062867009474,-1760,-2318,-2386,3808,321,100694
12:18:34.439,16714,1025.390625,-59.5703125,-153.3203125,0.2907718533822553,0.024434609527920613,-0.0317649923862968,-1762,-2319,-2393,3808,321,100694
12:18:34.459,16715,1019.53125,-74.21875,-150.390625,0.2541199390903744,0.0317649923862968,-0.023212879051524585,-1758,-2319,-2399,3808,321,100694
12:18:34.469,16716,1021.484375,-89.84375,-145.5078125,0.2235766771804736,0.03298672286269283,-0.03665191429188092,-1751,-2312,-2401,3808,321,100694
12:18:34.490,16717,1004.8828125,-98.6328125,-142.578125,0.1661553447898602,0.024434609527920613,-0.04398229715025711,-1758,-2318,-2397,3808,321,100694
12:18:34.510,16718,1000.9765625,-90.8203125,-144.53125,0.06963863715457375,0.0024434609527920616,-0.025656340004316647,-1760,-2321,-2400,3808,321,100694
12:18:34.531,16719,991.2109375,-67.3828125,-138.671875,-0.03543018381548489,-0.014660765716752368,-0.006108652381980153,-1759,-2324,-2406,3808,321,100694
12:18:34.541,16720,993.1640625,-35.15625,-132.8125,-0.12217304763960309,-0.019547687622336492,0.003665191429188092,-1759,-2321,-2392,3808,321,100694
12:18:34.561,16721,994.140625,-20.5078125,-138.671875,-0.1478293876439197,-0.04520402762665313,0.012217304763960306,-1763,-2318,-2399,3808,321,100694
12:18:34.581,16722,1000.9765625,-12.6953125,-151.3671875,-0.13316862192716736,-0.05742133239061345,0.04153883619746505,-1753,-2323,-2388,3808,321,100694
12:18:34.602,16723,1002.9296875,-15.625,-149.4140625,-0.10873401239924674,-0.08552113334772216,0.05986479334340551,-1761,-2320,-2392,3808,321,100694
12:18:34.622,16724,1000.9765625,-15.625,-163.0859375,-0.07941248096574201,-0.09285151620609834,0.08796459430051422,-1740,-2310,-2404,3808,321,100694
12:18:34.632,16725,994.140625,-17.578125,-162.109375,-0.10018189906447451,-0.08918632477691024,0.10506882097005865,-1765,-2321,-2379,3808,321,100694
12:18:34.653,16726,1002.9296875,0.9765625,-149.4140625,-0.10140362954087055,-0.08552113334772216,0.1075122819228507,-1750,-2316,-2396,3808,321,100694
12:18:34.673,16727,1005.859375,-11.71875,-149.4140625,-0.10995574287564278,-0.09285151620609834,0.1038470904936626,-1760,-2323,-2393,3808,321,100694
12:18:34.693,16728,1021.484375,-24.4140625,-155.2734375,-0.08796459430051422,-0.10140362954087055,0.09040805525330627,-1768,-2318,-2391,3808,321,100694
12:18:34.714,16729,1027.34375,-31.25,-162.109375,-0.11362093430483088,-0.06841690667817772,0.07941248096574201,-1767,-2325,-2392,3808,321,100694
12:18:34.724,16730,1028.3203125,-32.2265625,-168.9453125,-0.14172073526193957,-0.058643062867009474,0.08796459430051422,-1761,-2324,-2389,3808,321,100694
12:18:34.744,16731,1012.6953125,-34.1796875,-166.015625,-0.14905111812031577,-0.05375614096142535,0.08063421144213802,-1768,-2323,-2396,3808,321,100694
12:18:34.765,16732,1012.6953125,-32.2265625,-166.015625,-0.13805554383275148,-0.025656340004316647,0.06475171524898964,-1768,-2321,-2394,3808,321,100694
12:18:34.785,16733,1001.953125,-11.71875,-162.109375,-0.12217304763960309,-0.04642575810304917,0.06475171524898964,-1762,-2322,-2401,3808,321,100694
12:18:34.795,16734,1004.8828125,-19.53125,-157.2265625,-0.12583823906879116,-0.048869219055841226,0.03054326190990077,-1765,-2322,-2404,3808,321,100694
12:18:34.815,16735,999.0234375,-25.390625,-152.34375,-0.16493361431346415,-0.0671951762017817,0.0317649923862968,-1765,-2326,-2388,3808,321,100694
12:18:34.856,16736,1002.9296875,-12.6953125,-150.390625,-0.17470745812463243,-0.051312680008633295,0.014660765716752368,-1771,-2327,-2396,3808,321,100694
12:18:34.877,16737,1001.953125,20.5078125,-147.4609375,-0.2028072590817411,-0.03665191429188092,0.013439035240356337,-1769,-2326,-2398,3808,321,100694
12:18:34.887,16738,1012.6953125,14.6484375,-158.203125,-0.17959438003021652,-0.02809980095710871,0.01832595714594046,-1766,-2322,-2393,3808,321,100694
12:18:34.908,16739,1010.7421875,12.6953125,-163.0859375,-0.12950343049797927,-0.05009094953223726,0.01832595714594046,-1770,-2320,-2384,3808,321,100694
12:18:34.928,16740,1022.4609375,2.9296875,-179.6875,-0.09285151620609834,-0.0476474885794452,0.023212879051524585,-1761,-2318,-2387,3808,321,100694
12:18:34.949,16741,1015.625,10.7421875,-181.640625,-0.07086036763096978,-0.0024434609527920616,0.03420845333908886,-1773,-2321,-2388,3808,321,100694
12:18:34.959,16742,998.046875,16.6015625,-180.6640625,-0.06230825429619757,0.010995574287564277,0.008552113334772215,-1769,-2327,-2390,3808,321,100694
12:18:34.979,16743,998.046875,-0.0,-168.9453125,-0.0317649923862968,0.008552113334772215,-0.010995574287564277,-1770,-2319,-2386,3808,321,100694
12:18:34.999,16744,990.234375,-19.53125,-169.921875,-0.04398229715025711,0.03298672286269283,-0.039095375244672985,-1760,-2319,-2389,3808,321,100694
12:18:35.20,16745,984.375,-40.0390625,-182.6171875,-0.05986479334340551,0.0635299847725936,-0.06108652381980154,-1771,-2319,-2376,3808,321,100694
12:18:35.40,16746,981.4453125,-69.3359375,-185.546875,-0.1148426647812269,0.06475171524898964,-0.07330382858376185,-1767,-2321,-2383,3808,321,100694
12:18:35.51,16747,976.5625,-55.6640625,-194.3359375,-0.17592918860102844,0.05619960191421742,-0.07574728953655392,-1769,-2322,-2373,3808,321,100694
12:18:35.71,16748,981.4453125,-41.9921875,-187.5,-0.2504547476611863,0.05986479334340551,-0.04276056667386108,-1766,-2319,-2387,3808,321,100694
12:18:35.91,16749,999.0234375,-10.7421875,-193.359375,-0.2431243648028101,0.0671951762017817,-0.04031710572106901,-1770,-2325,-2379,3808,321,100694
12:18:35.203,16750,1009.765625,16.6015625,-185.546875,-0.20036379812894903,0.06963863715457375,-0.025656340004316647,-1765,-2320,-2374,3808,321,100694
12:18:35.223,16751,1014.6484375,38.0859375,-185.546875,-0.1233947781159991,0.03665191429188092,0.01832595714594046,-1760,-2320,-2386,3808,321,100694
12:18:35.233,16752,1008.7890625,46.875,-185.546875,-0.04276056667386108,0.0317649923862968,0.03787364476827696,-1763,-2324,-2371,3814,321,100692
12:18:35.254,16753,998.046875,40.0390625,-181.640625,0.024434609527920613,0.04031710572106901,0.04520402762665313,-1763,-2317,-2385,3814,321,100692
12:18:35.274,16754,992.1875,19.53125,-173.828125,0.01710422666954443,0.039095375244672985,0.03787364476827696,-1760,-2314,-2380,3814,321,100692
12:18:35.295,16755,993.1640625,-13.671875,-166.9921875,0.058643062867009474,-0.0012217304763960308,0.051312680008633295,-1762,-2322,-2383,3814,321,100692
12:18:35.305,16756,986.328125,-11.71875,-166.015625,0.05742133239061345,-0.01710422666954443,0.0317649923862968,-1768,-2322,-2380,3814,321,100692
12:18:35.325,16757,1000.9765625,-0.9765625,-163.0859375,0.003665191429188092,-0.006108652381980153,0.01832595714594046,-1768,-2320,-2380,3814,321,100692
12:18:35.346,16758,1002.9296875,-14.6484375,-147.4609375,-0.07086036763096978,-0.021991148575128554,0.0012217304763960308,-1765,-2321,-2386,3814,321,100692
12:18:35.366,16759,1010.7421875,-11.71875,-164.0625,-0.09773843811168245,-0.0476474885794452,-0.0024434609527920616,-1768,-2321,-2385,3814,321,100692
12:18:35.386,16760,1048.828125,10.7421875,-147.4609375,-0.1466076571675237,-0.058643062867009474,-0.012217304763960306,-1767,-2320,-2385,3814,321,100692
12:18:35.396,16761,1042.96875,16.6015625,-168.9453125,-0.15149457907310784,-0.05742133239061345,-0.014660765716752368,-1755,-2320,-2392,3814,321,100692
12:18:35.417,16762,1026.3671875,40.0390625,-183.59375,-0.09040805525330627,-0.052534410485029326,-0.020769418098732523,-1770,-2318,-2374,3814,321,100692
12:18:35.437,16763,1017.578125,38.0859375,-184.5703125,-0.051312680008633295,-0.03543018381548489,-0.0012217304763960308,-1774,-2321,-2379,3814,321,100692
12:18:35.458,16764,1027.34375,41.015625,-195.3125,0.0476474885794452,-0.05009094953223726,0.003665191429188092,-1765,-2320,-2378,3814,321,100692
12:18:35.478,16765,1017.578125,12.6953125,-195.3125,0.1661553447898602,-0.05742133239061345,0.0024434609527920616,-1769,-2322,-2366,3814,321,100692
12:18:35.488,16766,1000.9765625,7.8125,-195.3125,0.2419026343264141,-0.04520402762665313,-0.0024434609527920616,-1777,-2315,-2385,3814,321,100692
12:18:35.508,16767,989.2578125,-8.7890625,-173.828125,0.2223549467040776,-0.04520402762665313,-0.03420845333908886,-1770,-2315,-2378,3814,321,100692
12:18:35.529,16768,987.3046875,-9.765625,-166.9921875,0.19914206765255302,-0.058643062867009474,-0.04398229715025711,-1766,-2319,-2386,3814,321,100692
12:18:35.550,16769,999.0234375,-18.5546875,-157.2265625,0.19303341527057283,-0.052534410485029326,-0.08063421144213802,-1767,-2320,-2390,3814,321,100692
12:18:35.560,16770,998.046875,-32.2265625,-159.1796875,0.18081611050661253,-0.06597344572538566,-0.1111774733520388,-1765,-2317,-2378,3814,321,100692
12:18:35.581,16771,998.046875,-50.78125,-173.828125,0.13194689145077132,-0.07086036763096978,-0.12217304763960309,-1766,-2327,-2377,3814,321,100692
12:18:35.601,16772,1000.9765625,-50.78125,-179.6875,0.07452555906015788,-0.06108652381980154,-0.12217304763960309,-1758,-2321,-2380,3814,321,100692
12:18:35.622,16773,1002.9296875,-45.8984375,-182.6171875,0.0012217304763960308,-0.05497787143782139,-0.1466076571675237,-1766,-2319,-2372,3814,321,100692
12:18:35.632,16774,1002.9296875,-21.484375,-165.0390625,-0.0012217304763960308,-0.04642575810304917,-0.1356120828799594,-1767,-2316,-2381,3814,321,100692
12:18:35.653,16775,1000.9765625,-11.71875,-166.9921875,-0.020769418098732523,-0.03420845333908886,-0.12217304763960309,-1762,-2315,-2384,3814,321,100692
12:18:35.673,16776,999.0234375,-2.9296875,-156.25,0.010995574287564277,-0.020769418098732523,-0.10506882097005865,-1764,-2313,-2372,3814,321,100692
12:18:35.693,16777,1003.90625,-0.0,-161.1328125,0.029321531433504737,-0.04153883619746505,-0.0952949771588904,-1762,-2317,-2375,3814,321,100692
12:18:35.714,16778,1005.859375,-20.5078125,-160.15625,-0.014660765716752368,-0.01710422666954443,-0.08185594191853407,-1762,-2311,-2375,3814,321,100692
12:18:35.724,16779,999.0234375,-40.0390625,-168.9453125,-0.05009094953223726,0.0,-0.07086036763096978,-1766,-2314,-2386,3814,321,100692
12:18:35.744,16780,1000.9765625,-54.6875,-163.0859375,-0.1111774733520388,0.014660765716752368,-0.04276056667386108,-1769,-2315,-2386,3814,321,100692
12:18:35.764,16781,1014.6484375,-53.7109375,-163.0859375,-0.12950343049797927,0.0024434609527920616,-0.048869219055841226,-1768,-2313,-2382,3814,321,100692
12:18:35.785,16782,1013.671875,-47.8515625,-162.109375,-0.17226399717184035,0.03054326190990077,-0.023212879051524585,-1757,-2311,-2377,3814,321,100692
12:18:35.805,16783,1009.765625,-42.96875,-171.875,-0.19669860669976097,0.020769418098732523,-0.01832595714594046,-1762,-2314,-2394,3814,321,100692
12:18:35.815,16784,1005.859375,-33.203125,-174.8046875,-0.24556782575560218,0.012217304763960306,0.0024434609527920616,-1766,-2309,-2387,3814,321,100692
12:18:35.836,16785,1006.8359375,-12.6953125,-166.9921875,-0.2919935838586513,-0.006108652381980153,0.03787364476827696,-1765,-2311,-2376,3814,321,100692
12:18:35.856,16786,994.140625,9.765625,-170.8984375,-0.2932153143350474,-0.0158824961931484,0.03787364476827696,-1763,-2311,-2375,3814,321,100692
12:18:35.876,16787,999.0234375,15.625,-172.8515625,-0.2748893571891069,0.006108652381980153,0.03787364476827696,-1752,-2306,-2373,3814,321,100692
12:18:35.887,16788,999.0234375,7.8125,-173.828125,-0.2577851305195625,-0.013439035240356337,0.05986479334340551,-1756,-2310,-2384,3814,321,100692
12:18:35.907,16789,992.1875,2.9296875,-166.9921875,-0.2516764781375823,-0.01832595714594046,0.07452555906015788,-1744,-2303,-2372,3814,321,100692
12:18:35.927,16790,1000.9765625,-7.8125,-171.875,-0.2700024352835228,-0.012217304763960306,0.05742133239061345,-1765,-2305,-2378,3814,321,100692
12:18:35.947,16791,1000.0,-3.90625,-172.8515625,-0.2712241657599188,-0.004886921905584123,0.039095375244672985,-1766,-2307,-2371,3814,321,100692
12:18:35.968,16792,1000.9765625,-0.9765625,-176.7578125,-0.3066543495754037,-0.007330382858376184,0.05375614096142535,-1759,-2309,-2369,3814,321,100692
12:18:35.978,16793,1011.71875,12.6953125,-166.015625,-0.3017674276698196,0.008552113334772215,0.06230825429619757,-1763,-2305,-2376,3814,321,100692
12:18:35.998,16794,1002.9296875,6.8359375,-165.0390625,-0.31887165433936404,0.006108652381980153,0.05619960191421742,-1765,-2307,-2378,3814,321,100692
12:18:36.19,16795,998.046875,3.90625,-163.0859375,-0.3042108886226117,0.013439035240356337,0.06597344572538566,-1770,-2305,-2380,3814,321,100692
12:18:36.40,16796,993.1640625,9.765625,-163.0859375,-0.3005456971934236,0.0317649923862968,0.06230825429619757,-1751,-2296,-2378,3814,321,100692
12:18:36.50,16797,1000.0,11.71875,-157.2265625,-0.3335324200561164,0.03665191429188092,0.04276056667386108,-1766,-2304,-2373,3814,321,100692
12:18:36.71,16798,1003.90625,13.671875,-161.1328125,-0.3640756819660172,0.039095375244672985,0.0476474885794452,-1766,-2305,-2376,3814,321,100692
12:18:36.112,16799,1019.53125,27.34375,-157.2265625,-0.3897320219703338,0.06475171524898964,0.08185594191853407,-1762,-2301,-2373,3814,321,100692
12:18:36.132,16800,1027.34375,47.8515625,-166.015625,-0.3481931857728688,0.06230825429619757,0.09285151620609834,-1764,-2299,-2365,3814,321,100692
12:18:36.143,16801,1028.3203125,41.9921875,-176.7578125,-0.3090978105281958,0.07696902001294993,0.09285151620609834,-1770,-2301,-2367,3814,321,100692
12:18:36.163,16802,1023.4375,34.1796875,-172.8515625,-0.23701571242082997,0.09651670763528641,0.0989601685880785,-1768,-2305,-2361,3814,321,100694
12:18:36.183,16803,1017.578125,2.9296875,-170.8984375,-0.19914206765255302,0.10140362954087055,0.1111774733520388,-1760,-2299,-2372,3814,321,100694
12:18:36.204,16804,1007.8125,0.9765625,-173.828125,-0.20158552860534507,0.0989601685880785,0.0830776723949301,-1765,-2302,-2370,3814,321,100694
12:18:36.224,16805,1008.7890625,9.765625,-158.203125,-0.2296853295624538,0.09773843811168245,0.08063421144213802,-1766,-2302,-2370,3814,321,100694
12:18:36.234,16806,1008.7890625,25.390625,-156.25,-0.2700024352835228,0.09773843811168245,0.0671951762017817,-1769,-2301,-2365,3814,321,100694
12:18:36.306,16807,1005.859375,36.1328125,-164.0625,-0.2504547476611863,0.07452555906015788,0.0635299847725936,-1768,-2305,-2374,3814,321,100694
12:18:36.326,16808,1006.8359375,47.8515625,-162.109375,-0.20036379812894903,0.051312680008633295,0.07574728953655392,-1764,-2299,-2368,3814,321,100694
12:18:36.347,16809,1029.296875,57.6171875,-175.78125,-0.1466076571675237,0.04642575810304917,0.09040805525330627,-1769,-2305,-2367,3814,321,100694
12:18:36.367,16810,1036.1328125,72.265625,-178.7109375,-0.07452555906015788,0.025656340004316647,0.08185594191853407,-1763,-2298,-2363,3814,321,100694
12:18:36.387,16811,1022.4609375,55.6640625,-179.6875,-0.039095375244672985,0.04153883619746505,0.09651670763528641,-1771,-2304,-2366,3814,321,100694
12:18:36.398,16812,1006.8359375,35.15625,-181.640625,0.008552113334772215,0.03787364476827696,0.07086036763096978,-1768,-2306,-2368,3814,321,100694
12:18:36.418,16813,1001.953125,10.7421875,-162.109375,0.0158824961931484,0.052534410485029326,0.04642575810304917,-1766,-2308,-2367,3814,321,100694
12:18:36.439,16814,994.140625,-23.4375,-172.8515625,0.05375614096142535,0.021991148575128554,0.01832595714594046,-1766,-2310,-2376,3814,321,100694
12:18:36.459,16815,986.328125,-28.3203125,-183.59375,0.004886921905584123,0.0,-0.0024434609527920616,-1766,-2307,-2370,3814,321,100694
12:18:36.479,16816,988.28125,-2.9296875,-176.7578125,-0.06230825429619757,0.01710422666954443,-0.019547687622336492,-1766,-2309,-2362,3814,321,100694
12:18:36.490,16817,1001.953125,8.7890625,-178.7109375,-0.07574728953655392,0.012217304763960306,-0.0158824961931484,-1758,-2309,-2380,3814,321,100694
12:18:36.510,16818,1000.0,16.6015625,-162.109375,-0.07208209810736582,0.006108652381980153,-0.039095375244672985,-1764,-2306,-2367,3814,321,100694
12:18:36.531,16819,1003.90625,39.0625,-156.25,-0.04520402762665313,0.0012217304763960308,-0.07086036763096978,-1764,-2308,-2370,3814,321,100694
12:18:36.552,16820,1008.7890625,30.2734375,-173.828125,-0.024434609527920613,-0.007330382858376184,-0.05009094953223726,-1763,-2305,-2364,3814,321,100694
12:18:36.562,16821,1026.3671875,32.2265625,-183.59375,0.039095375244672985,-0.01710422666954443,-0.019547687622336492,-1767,-2306,-2367,3814,321,100694
12:18:36.582,16822,1021.484375,22.4609375,-170.8984375,0.08796459430051422,-0.024434609527920613,-0.026878070480712675,-1764,-2308,-2371,3814,321,100694
12:18:36.602,16823,1011.71875,-7.8125,-166.015625,0.11606439525762292,-0.026878070480712675,-0.020769418098732523,-1765,-2303,-2377,3814,321,100694
12:18:36.623,16824,1006.8359375,-12.6953125,-158.203125,0.09162978572970232,-0.009773843811168246,-0.03787364476827696,-1754,-2297,-2368,3814,321,100694
12:18:36.643,16825,1012.6953125,-2.9296875,-154.296875,0.0830776723949301,-0.052534410485029326,-0.05375614096142535,-1760,-2307,-2376,3814,321,100694
12:18:36.653,16826,1001.953125,6.8359375,-154.296875,0.06963863715457375,-0.05375614096142535,-0.05742133239061345,-1767,-2309,-2371,3814,321,100694
12:18:36.735,16827,1012.6953125,13.671875,-174.8046875,0.07574728953655392,-0.058643062867009474,-0.05619960191421742,-1764,-2304,-2364,3814,321,100694
12:18:36.746,16828,1013.671875,42.96875,-156.25,0.03543018381548489,-0.029321531433504737,-0.06230825429619757,-1756,-2305,-2367,3814,321,100694
12:18:36.766,16829,1004.8828125,34.1796875,-139.6484375,0.06841690667817772,-0.07696902001294993,-0.058643062867009474,-1768,-2305,-2369,3814,321,100694
12:18:36.787,16830,1031.25,33.203125,-146.484375,0.15149457907310784,-0.09285151620609834,-0.058643062867009474,-1766,-2300,-2375,3814,321,100694
12:18:36.807,16831,1045.8984375,49.8046875,-162.109375,0.1820378409830086,-0.0830776723949301,-0.039095375244672985,-1762,-2300,-2371,3814,321,100694
12:18:36.818,16832,1028.3203125,71.2890625,-166.9921875,0.2736676267127109,-0.08796459430051422,-0.010995574287564277,-1763,-2303,-2382,3814,321,100694
12:18:36.838,16833,998.046875,44.921875,-163.0859375,0.3078760800517997,-0.07941248096574201,-0.010995574287564277,-1772,-2307,-2371,3814,321,100694
12:18:36.859,16834,994.140625,-16.6015625,-157.2265625,0.3286454981505323,-0.0635299847725936,-0.05375614096142535,-1770,-2304,-2357,3814,321,100694
12:18:36.880,16835,1003.90625,-41.9921875,-142.578125,0.32131511529215606,-0.06597344572538566,-0.06963863715457375,-1765,-2307,-2377,3814,321,100694
12:18:36.890,16836,1007.8125,-41.015625,-149.4140625,0.2553416695667704,-0.08185594191853407,-0.07819075048934597,-1764,-2309,-2368,3814,321,100694
12:18:36.911,16837,998.046875,-3.90625,-154.296875,0.19914206765255302,-0.09162978572970232,-0.07819075048934597,-1764,-2309,-2380,3814,321,100694
12:18:36.931,16838,1012.6953125,4.8828125,-161.1328125,0.15760323145508798,-0.07819075048934597,-0.10262536001726659,-1755,-2301,-2373,3814,321,100694
12:18:36.952,16839,1027.34375,5.859375,-165.0390625,0.18570303241219668,-0.06841690667817772,-0.10995574287564278,-1761,-2305,-2367,3814,321,100694
12:18:36.962,16840,1018.5546875,2.9296875,-161.1328125,0.20158552860534507,-0.0635299847725936,-0.11239920382843484,-1760,-2303,-2365,3814,321,100694
12:18:36.982,16841,1007.8125,-7.8125,-162.109375,0.2138028333693054,-0.052534410485029326,-0.10018189906447451,-1762,-2307,-2362,3814,321,100694
12:18:37.3,16842,993.1640625,7.8125,-162.109375,0.19914206765255302,-0.03298672286269283,-0.0867428638241182,-1767,-2308,-2376,3814,321,100694
12:18:37.23,16843,994.140625,5.859375,-168.9453125,0.19303341527057283,-0.04276056667386108,-0.09285151620609834,-1768,-2308,-2375,3814,321,100694
12:18:37.43,16844,998.046875,-3.90625,-162.109375,0.16737707526625623,-0.021991148575128554,-0.07330382858376185,-1764,-2309,-2374,3814,321,100694
12:18:37.53,16845,999.0234375,-11.71875,-162.109375,0.19669860669976097,-0.03665191429188092,-0.06841690667817772,-1761,-2302,-2374,3814,321,100694
12:18:37.73,16846,1002.9296875,-11.71875,-159.1796875,0.16859880574265224,-0.02809980095710871,-0.07086036763096978,-1763,-2300,-2372,3814,321,100694
12:18:37.94,16847,1007.8125,-0.0,-168.9453125,0.1734857276482364,-0.025656340004316647,-0.07330382858376185,-1762,-2308,-2372,3814,321,100694
12:18:37.114,16848,1006.8359375,-6.8359375,-169.921875,0.14905111812031577,-0.008552113334772215,-0.058643062867009474,-1764,-2310,-2363,3814,321,100694
12:18:37.134,16849,1022.4609375,-11.71875,-179.6875,0.13683381335635544,0.004886921905584123,-0.05742133239061345,-1766,-2309,-2369,3814,321,100694
12:18:37.145,16850,1016.6015625,-13.671875,-181.640625,0.12217304763960309,0.003665191429188092,-0.04276056667386108,-1765,-2310,-2371,3814,321,100694
12:18:37.165,16851,1022.4609375,2.9296875,-174.8046875,0.14538592669112765,0.008552113334772215,-0.03665191429188092,-1761,-2304,-2392,3814,321,100694
12:18:37.185,16852,1016.6015625,-4.8828125,-170.8984375,0.1111774733520388,0.009773843811168246,-0.023212879051524585,-1746,-2293,-2373,3808,321,100688
12:18:37.205,16853,1004.8828125,2.9296875,-177.734375,0.11362093430483088,0.008552113334772215,-0.008552113334772215,-1757,-2303,-2380,3808,321,100688
12:18:37.226,16854,990.234375,2.9296875,-173.828125,0.10873401239924674,0.006108652381980153,-0.006108652381980153,-1762,-2306,-2373,3808,321,100688
12:18:37.368,16855,985.3515625,-9.765625,-176.7578125,0.08429940287132612,0.019547687622336492,-0.007330382858376184,-1760,-2304,-2371,3808,321,100688
12:18:37.388,16856,978.515625,-24.4140625,-172.8515625,0.020769418098732523,0.03298672286269283,0.006108652381980153,-1767,-2304,-2382,3808,321,100688
12:18:37.398,16857,981.4453125,-23.4375,-177.734375,-0.013439035240356337,0.024434609527920613,0.024434609527920613,-1765,-2310,-2379,3808,321,100688
12:18:37.419,16858,1000.9765625,-11.71875,-171.875,-0.05497787143782139,-0.003665191429188092,0.025656340004316647,-1766,-2312,-2391,3808,321,100688
12:18:37.439,16859,991.2109375,1.953125,-166.015625,-0.052534410485029326,-0.007330382858376184,0.04398229715025711,-1758,-2309,-2385,3808,321,100688
12:18:37.460,16860,986.328125,-25.390625,-173.828125,-0.09162978572970232,0.0,0.021991148575128554,-1767,-2310,-2377,3808,321,100688
12:18:37.480,16861,1004.8828125,-42.96875,-170.8984375,-0.1270599695451872,-0.014660765716752368,0.0158824961931484,-1760,-2312,-2393,3808,321,100688
12:18:37.490,16862,1005.859375,-32.2265625,-163.0859375,-0.17837264955382048,-0.021991148575128554,0.03787364476827696,-1762,-2312,-2375,3808,321,100688
12:18:37.511,16863,1000.0,-21.484375,-156.25,-0.2076941809873252,-0.04031710572106901,0.03420845333908886,-1762,-2310,-2374,3808,321,100688
12:18:37.531,16864,1007.8125,-18.5546875,-166.015625,-0.23945917337362205,-0.02809980095710871,0.03543018381548489,-1764,-2313,-2373,3808,321,100688
12:18:37.551,16865,1018.5546875,-9.765625,-166.9921875,-0.2822197400474831,-0.03787364476827696,0.03665191429188092,-1761,-2311,-2368,3808,321,100688
12:18:37.561,16866,1009.765625,-1.953125,-162.109375,-0.2651155133779387,-0.05986479334340551,0.06597344572538566,-1736,-2300,-2374,3808,321,100688
12:18:37.581,16867,1003.90625,6.8359375,-166.015625,-0.21258110289290938,-0.07330382858376185,0.07941248096574201,-1764,-2307,-2379,3808,321,100688
12:18:37.602,16868,1011.71875,28.3203125,-166.015625,-0.18570303241219668,-0.052534410485029326,0.09651670763528641,-1765,-2303,-2369,3808,321,100688
12:18:37.622,16869,1022.4609375,24.4140625,-149.4140625,-0.22602013813326569,-0.04520402762665313,0.0867428638241182,-1760,-2302,-2361,3808,321,100688
12:18:37.642,16870,1023.4375,8.7890625,-153.3203125,-0.18325957145940464,-0.05009094953223726,0.0867428638241182,-1763,-2305,-2378,3808,321,100688
12:18:37.652,16871,1007.8125,-0.9765625,-166.015625,-0.15760323145508798,-0.052534410485029326,0.08552113334772216,-1764,-2306,-2360,3808,321,100688
12:18:37.673,16872,1001.953125,-3.90625,-174.8046875,-0.15149457907310784,-0.023212879051524585,0.08796459430051422,-1766,-2299,-2362,3808,321,100688
12:18:37.693,16873,997.0703125,2.9296875,-172.8515625,-0.1734857276482364,-0.0158824961931484,0.07819075048934597,-1751,-2299,-2368,3808,321,100688
12:18:37.713,16874,997.0703125,-13.671875,-169.921875,-0.16982053621904827,0.0,0.07819075048934597,-1765,-2307,-2368,3808,321,100688
12:18:37.734,16875,992.1875,-23.4375,-165.0390625,-0.16371188383706814,-0.019547687622336492,0.06841690667817772,-1767,-2308,-2375,3808,321,100688
12:18:37.744,16876,994.140625,-11.71875,-170.8984375,-0.1551597705022959,0.008552113334772215,0.06230825429619757,-1765,-2303,-2369,3808,321,100688
12:18:37.764,16877,1003.90625,12.6953125,-170.8984375,-0.17470745812463243,0.03054326190990077,0.05497787143782139,-1763,-2303,-2373,3808,321,100688
12:18:37.785,16878,1024.4140625,15.625,-185.546875,-0.17226399717184035,0.06108652381980154,0.04031710572106901,-1770,-2301,-2365,3808,321,100688
12:18:37.805,16879,1024.4140625,19.53125,-176.7578125,-0.15638150097869194,0.05742133239061345,0.04520402762665313,-1769,-2297,-2373,3808,321,100688
12:18:37.825,16880,1029.296875,9.765625,-180.6640625,-0.1356120828799594,0.0671951762017817,0.04031710572106901,-1765,-2301,-2367,3808,321,100688
12:18:37.835,16881,1019.53125,8.7890625,-174.8046875,-0.12583823906879116,0.08185594191853407,0.058643062867009474,-1768,-2304,-2358,3808,321,100688
12:18:37.855,16882,1003.90625,22.4609375,-173.828125,-0.09773843811168245,0.08429940287132612,0.05375614096142535,-1768,-2308,-2368,3808,321,100688
12:18:37.875,16883,1001.953125,23.4375,-174.8046875,-0.0671951762017817,0.09040805525330627,0.03420845333908886,-1765,-2304,-2371,3808,321,100688
12:18:37.896,16884,1001.953125,5.859375,-179.6875,-0.07208209810736582,0.07208209810736582,0.013439035240356337,-1771,-2305,-2372,3808,321,100688
12:18:37.916,16885,998.046875,1.953125,-177.734375,-0.06841690667817772,0.06230825429619757,0.01832595714594046,-1767,-2302,-2362,3808,321,100688
12:18:37.926,16886,987.3046875,2.9296875,-186.5234375,-0.09773843811168245,0.06230825429619757,0.0158824961931484,-1764,-2303,-2362,3808,321,100688
12:18:37.946,16887,985.3515625,34.1796875,-181.640625,-0.10506882097005865,0.04642575810304917,0.014660765716752368,-1757,-2307,-2377,3808,321,100688
12:18:37.967,16888,986.328125,44.921875,-170.8984375,-0.09773843811168245,0.02809980095710871,0.026878070480712675,-1762,-2304,-2370,3808,321,100688
12:18:37.987,16889,988.28125,42.96875,-172.8515625,-0.03787364476827696,0.01832595714594046,0.025656340004316647,-1765,-2306,-2364,3808,321,100688
12:18:37.997,16890,993.1640625,24.4140625,-184.5703125,-0.019547687622336492,0.024434609527920613,0.010995574287564277,-1767,-2304,-2369,3808,321,100688
12:18:38.17,16891,1000.9765625,20.5078125,-182.6171875,-0.014660765716752368,0.0,0.03665191429188092,-1767,-2306,-2356,3808,321,100688
12:18:38.38,16892,1000.9765625,25.390625,-191.40625,-0.003665191429188092,-0.0012217304763960308,0.029321531433504737,-1768,-2308,-2362,3808,321,100688
12:18:38.58,16893,1001.953125,46.875,-170.8984375,0.0,0.004886921905584123,0.03420845333908886,-1767,-2308,-2368,3808,321,100688
12:18:38.79,16894,1000.0,40.0390625,-172.8515625,0.05375614096142535,0.003665191429188092,0.04153883619746505,-1753,-2302,-2367,3808,321,100688
12:18:38.89,16895,988.28125,36.1328125,-157.2265625,0.0830776723949301,-0.008552113334772215,0.0317649923862968,-1768,-2304,-2367,3808,321,100688
12:18:38.109,16896,965.8203125,-5.859375,-163.0859375,0.11239920382843484,-0.0158824961931484,0.0024434609527920616,-1767,-2304,-2367,3808,321,100688
12:18:38.129,16897,962.890625,-9.765625,-164.0625,0.08063421144213802,0.004886921905584123,-0.021991148575128554,-1768,-2306,-2360,3808,321,100688
12:18:38.150,16898,994.140625,-3.90625,-161.1328125,0.007330382858376184,0.019547687622336492,-0.0635299847725936,-1769,-2311,-2366,3808,321,100688
12:18:38.170,16899,1028.3203125,14.6484375,-160.15625,-0.05742133239061345,0.026878070480712675,-0.07819075048934597,-1769,-2313,-2359,3808,321,100688
12:18:38.180,16900,1057.6171875,51.7578125,-166.9921875,-0.0158824961931484,0.0024434609527920616,-0.039095375244672985,-1771,-2306,-2368,3808,321,100688
12:18:38.200,16901,1078.125,76.171875,-178.7109375,0.0635299847725936,0.004886921905584123,-0.012217304763960306,-1753,-2299,-2375,3808,321,100688
12:18:38.221,16902,1066.40625,98.6328125,-182.6171875,0.2504547476611863,0.010995574287564277,-0.007330382858376184,-1764,-2308,-2370,3814,321,100696
12:18:38.241,16903,1050.78125,63.4765625,-173.828125,0.40805797911627434,-0.012217304763960306,-0.04031710572106901,-1767,-2306,-2364,3814,321,100696
12:18:38.251,16904,1031.25,24.4140625,-167.96875,0.516791991515521,-0.029321531433504737,-0.0476474885794452,-1764,-2309,-2369,3814,321,100696
12:18:38.272,16905,1019.53125,0.9765625,-166.015625,0.5387831400906496,-0.019547687622336492,-0.05009094953223726,-1762,-2308,-2369,3814,321,100696
12:18:38.292,16906,1001.953125,-16.6015625,-158.203125,0.5045746867515608,-0.025656340004316647,-0.08918632477691024,-1767,-2315,-2370,3814,321,100696
12:18:38.312,16907,992.1875,-41.9921875,-146.484375,0.45081854579013536,-0.0317649923862968,-0.1307251609743753,-1767,-2315,-2379,3814,321,100696
12:18:38.333,16908,976.5625,-56.640625,-152.34375,0.39461894387591795,-0.05497787143782139,-0.16737707526625623,-1763,-2310,-2376,3814,321,100696
12:18:38.343,16909,977.5390625,-64.453125,-161.1328125,0.33964107243809655,-0.051312680008633295,-0.1942551457469689,-1769,-2312,-2388,3814,321,100696
12:18:38.363,16910,990.234375,-45.8984375,-160.15625,0.2419026343264141,-0.05986479334340551,-0.2138028333693054,-1766,-2312,-2379,3814,321,100696
12:18:38.384,16911,1001.953125,-40.0390625,-177.734375,0.2162462943220974,-0.06475171524898964,-0.2223549467040776,-1766,-2312,-2382,3814,321,100696
12:18:38.404,16912,1020.5078125,-24.4140625,-159.1796875,0.17592918860102844,-0.0671951762017817,-0.21746802479849348,-1769,-2311,-2369,3814,321,100696
12:18:38.425,16913,1027.34375,-11.71875,-164.0625,0.1942551457469689,-0.05986479334340551,-0.2150245638457014,-1769,-2308,-2375,3814,321,100696
12:18:38.435,16914,1029.296875,-10.7421875,-152.34375,0.17226399717184035,-0.04398229715025711,-0.2113593724165133,-1769,-2310,-2377,3814,321,100696
12:18:38.455,16915,1013.671875,-20.5078125,-161.1328125,0.17592918860102844,-0.039095375244672985,-0.1954768762233649,-1762,-2305,-2382,3814,321,100696
12:18:38.476,16916,1003.90625,-14.6484375,-169.921875,0.14049900478554353,-0.03054326190990077,-0.15638150097869194,-1764,-2306,-2360,3814,321,100696
12:18:38.497,16917,994.140625,-16.6015625,-175.78125,0.12828170002158323,-0.05009094953223726,-0.11728612573401895,-1760,-2309,-2371,3814,321,100696
12:18:38.507,16918,1000.9765625,-10.7421875,-173.828125,0.10262536001726659,-0.024434609527920613,-0.09651670763528641,-1765,-2304,-2376,3814,321,100696
12:18:38.527,16919,1005.859375,-0.9765625,-173.828125,0.1075122819228507,-0.023212879051524585,-0.06841690667817772,-1762,-2305,-2374,3814,321,100696
12:18:38.548,16920,1010.7421875,20.5078125,-168.9453125,0.12095131716320705,-0.010995574287564277,-0.04153883619746505,-1767,-2306,-2382,3814,321,100696
12:18:38.568,16921,1007.8125,6.8359375,-165.0390625,0.12950343049797927,-0.019547687622336492,-0.008552113334772215,-1760,-2303,-2368,3814,321,100696
12:18:38.578,16922,1004.8828125,1.953125,-181.640625,0.14049900478554353,-0.021991148575128554,0.004886921905584123,-1757,-2300,-2375,3814,321,100696
12:18:38.599,16923,999.0234375,4.8828125,-187.5,0.11972958668681102,-0.021991148575128554,0.03420845333908886,-1763,-2308,-2376,3814,321,100696
12:18:38.619,16924,1000.9765625,6.8359375,-182.6171875,0.13683381335635544,-0.021991148575128554,0.019547687622336492,-1763,-2306,-2374,3814,321,100696
12:18:38.690,16925,1001.953125,-6.8359375,-171.875,0.09407324668249437,-0.024434609527920613,0.03543018381548489,-1766,-2305,-2382,3814,321,100696
12:18:38.711,16926,999.0234375,-11.71875,-179.6875,0.09040805525330627,-0.04398229715025711,0.03787364476827696,-1767,-2310,-2381,3814,321,100696
12:18:38.731,16927,1000.0,-2.9296875,-174.8046875,0.039095375244672985,-0.04153883619746505,0.05742133239061345,-1761,-2312,-2373,3814,321,100696
12:18:38.751,16928,1005.859375,-7.8125,-189.453125,0.02809980095710871,-0.03787364476827696,0.04642575810304917,-1761,-2305,-2387,3814,321,100696
12:18:38.761,16929,1000.9765625,10.7421875,-188.4765625,0.039095375244672985,-0.07208209810736582,0.04398229715025711,-1763,-2307,-2380,3814,321,100696
12:18:38.782,16930,1000.0,16.6015625,-184.5703125,-0.0012217304763960308,-0.05375614096142535,0.04031710572106901,-1766,-2311,-2379,3814,321,100696
12:18:38.802,16931,1001.953125,1.953125,-177.734375,-0.025656340004316647,-0.051312680008633295,0.0635299847725936,-1767,-2309,-2390,3814,321,100696
12:18:38.843,16932,1004.8828125,-15.625,-178.7109375,-0.0635299847725936,-0.06963863715457375,0.05619960191421742,-1764,-2310,-2374,3814,321,100696
12:18:38.853,16933,1033.203125,2.9296875,-173.828125,-0.06841690667817772,-0.06963863715457375,0.07208209810736582,-1744,-2305,-2389,3814,321,100696
12:18:38.873,16934,1041.015625,16.6015625,-167.96875,-0.11606439525762292,-0.03665191429188092,0.12461650859239513,-1768,-2316,-2383,3814,321,100696
12:18:38.893,16935,1022.4609375,27.34375,-185.546875,-0.11972958668681102,-0.020769418098732523,0.1710422666954443,-1766,-2315,-2380,3814,321,100696
12:18:38.914,16936,999.0234375,16.6015625,-193.359375,-0.1038470904936626,-0.010995574287564277,0.17715091907742447,-1766,-2312,-2379,3814,321,100696
12:18:38.924,16937,978.515625,2.9296875,-190.4296875,-0.07208209810736582,-0.0012217304763960308,0.17715091907742447,-1773,-2311,-2380,3814,321,100696
12:18:38.944,16938,975.5859375,-8.7890625,-178.7109375,0.003665191429188092,-0.02809980095710871,0.17592918860102844,-1773,-2317,-2380,3814,321,100696
12:18:38.964,16939,978.515625,-14.6484375,-188.4765625,0.01832595714594046,-0.039095375244672985,0.17592918860102844,-1769,-2316,-2371,3814,321,100696
12:18:38.985,16940,973.6328125,14.6484375,-173.828125,0.025656340004316647,-0.02809980095710871,0.1551597705022959,-1760,-2318,-2372,3814,321,100696
12:18:39.5,16941,976.5625,2.9296875,-163.0859375,0.003665191429188092,-0.02809980095710871,0.15271630954950383,-1770,-2323,-2370,3814,321,100696
12:18:39.16,16942,975.5859375,-19.53125,-174.8046875,0.003665191429188092,-0.058643062867009474,0.11972958668681102,-1770,-2323,-2389,3814,321,100696
12:18:39.36,16943,979.4921875,-15.625,-183.59375,-0.0158824961931484,-0.048869219055841226,0.08796459430051422,-1759,-2315,-2382,3814,321,100696
12:18:39.56,16944,995.1171875,-4.8828125,-174.8046875,-0.04276056667386108,-0.05619960191421742,0.05742133239061345,-1770,-2326,-2382,3814,321,100696
12:18:39.77,16945,1005.859375,-14.6484375,-187.5,-0.052534410485029326,-0.05986479334340551,0.06108652381980154,-1776,-2324,-2380,3814,321,100696
12:18:39.87,16946,1009.765625,1.953125,-190.4296875,-0.05742133239061345,-0.04520402762665313,0.06963863715457375,-1772,-2323,-2373,3814,321,100696
12:18:39.108,16947,1019.53125,8.7890625,-178.7109375,-0.04153883619746505,-0.0317649923862968,0.03420845333908886,-1772,-2327,-2368,3814,321,100696
12:18:39.128,16948,1011.71875,-7.8125,-178.7109375,0.006108652381980153,-0.04153883619746505,0.03665191429188092,-1771,-2329,-2372,3814,321,100696
12:18:39.148,16949,1002.9296875,-17.578125,-182.6171875,0.0635299847725936,-0.052534410485029326,0.026878070480712675,-1771,-2322,-2380,3814,321,100696
12:18:39.169,16950,1005.859375,-9.765625,-181.640625,0.06108652381980154,-0.013439035240356337,0.019547687622336492,-1766,-2325,-2379,3814,321,100696
12:18:39.179,16951,994.140625,-6.8359375,-164.0625,0.04276056667386108,0.007330382858376184,0.013439035240356337,-1776,-2323,-2377,3814,321,100696
12:18:39.199,16952,989.2578125,-13.671875,-166.9921875,0.05742133239061345,0.02809980095710871,0.003665191429188092,-1775,-2326,-2377,3802,321,100690
12:18:39.220,16953,1000.0,-18.5546875,-170.8984375,0.07696902001294993,0.0158824961931484,-0.023212879051524585,-1770,-2327,-2375,3802,321,100690
12:18:39.241,16954,992.1875,-12.6953125,-154.296875,0.06963863715457375,0.052534410485029326,-0.03420845333908886,-1771,-2325,-2379,3802,321,100690
12:18:39.261,16955,988.28125,-24.4140625,-158.203125,0.05742133239061345,0.06475171524898964,-0.023212879051524585,-1774,-2328,-2375,3802,321,100690
12:18:39.272,16956,992.1875,-26.3671875,-168.9453125,0.05619960191421742,0.05009094953223726,-0.051312680008633295,-1766,-2330,-2378,3802,321,100690
12:18:39.292,16957,997.0703125,-28.3203125,-166.015625,0.06841690667817772,0.06841690667817772,-0.04520402762665313,-1766,-2325,-2373,3802,321,100690
12:18:39.313,16958,1000.0,-32.2265625,-169.921875,0.06475171524898964,0.07941248096574201,-0.06597344572538566,-1775,-2328,-2389,3802,321,100690
12:18:39.333,16959,1010.7421875,-20.5078125,-173.828125,0.08552113334772216,0.10995574287564278,-0.04031710572106901,-1772,-2324,-2388,3802,321,100690
12:18:39.343,16960,1008.7890625,2.9296875,-176.7578125,0.06475171524898964,0.1356120828799594,-0.051312680008633295,-1770,-2323,-2373,3802,321,100690
12:18:39.363,16961,1005.859375,-7.8125,-172.8515625,0.11239920382843484,0.1270599695451872,-0.0671951762017817,-1768,-2322,-2392,3802,321,100690
12:18:39.384,16962,1011.71875,-29.296875,-173.828125,0.17470745812463243,0.0989601685880785,-0.07086036763096978,-1773,-2324,-2389,3802,321,100690
12:18:39.404,16963,1008.7890625,-34.1796875,-170.8984375,0.197920337176157,0.11972958668681102,-0.06108652381980154,-1769,-2324,-2386,3802,321,100690
12:18:39.425,16964,995.1171875,-31.25,-166.015625,0.16004669240788005,0.11606439525762292,-0.08063421144213802,-1763,-2319,-2384,3802,321,100690
12:18:39.435,16965,986.328125,-39.0625,-164.0625,0.1233947781159991,0.10995574287564278,-0.08185594191853407,-1770,-2322,-2386,3802,321,100690
12:18:39.455,16966,998.046875,-33.203125,-172.8515625,0.07330382858376185,0.09773843811168245,-0.08185594191853407,-1767,-2322,-2388,3802,321,100690
12:18:39.475,16967,992.1875,-38.0859375,-170.8984375,0.05986479334340551,0.10018189906447451,-0.07941248096574201,-1770,-2317,-2399,3802,321,100690
12:18:39.496,16968,991.2109375,-28.3203125,-167.96875,0.05497787143782139,0.0989601685880785,-0.07330382858376185,-1769,-2318,-2391,3802,321,100690
12:18:39.506,16969,1000.9765625,-21.484375,-178.7109375,0.06597344572538566,0.08063421144213802,-0.06963863715457375,-1759,-2317,-2391,3802,321,100690
12:18:39.527,16970,1010.7421875,-13.671875,-162.109375,0.08185594191853407,0.06841690667817772,-0.07819075048934597,-1763,-2314,-2395,3802,321,100690
12:18:39.547,16971,1015.625,-14.6484375,-162.109375,0.10506882097005865,0.05375614096142535,-0.058643062867009474,-1753,-2314,-2395,3802,321,100690
12:18:39.568,16972,1031.25,-28.3203125,-158.203125,0.11239920382843484,0.05497787143782139,-0.07330382858376185,-1763,-2320,-2394,3802,321,100690
12:18:39.589,16973,1031.25,-42.96875,-161.1328125,0.08185594191853407,0.026878070480712675,-0.05619960191421742,-1763,-2319,-2406,3802,321,100690
12:18:39.599,16974,1010.7421875,-33.203125,-163.0859375,0.03420845333908886,0.02809980095710871,-0.06230825429619757,-1759,-2321,-2397,3802,321,100690
12:18:39.619,16975,1009.765625,-17.578125,-165.0390625,0.003665191429188092,0.03543018381548489,-0.051312680008633295,-1761,-2320,-2392,3802,321,100690
12:18:39.640,16976,1014.6484375,4.8828125,-162.109375,0.007330382858376184,0.03054326190990077,-0.023212879051524585,-1764,-2323,-2388,3802,321,100690
12:18:39.660,16977,1030.2734375,-6.8359375,-154.296875,0.020769418098732523,0.020769418098732523,-0.019547687622336492,-1762,-2318,-2390,3802,321,100690
12:18:39.670,16978,1030.2734375,-8.7890625,-164.0625,0.08918632477691024,-0.003665191429188092,-0.021991148575128554,-1748,-2313,-2396,3802,321,100690
12:18:39.691,16979,1025.390625,-10.7421875,-185.546875,0.12461650859239513,-0.004886921905584123,-0.004886921905584123,-1745,-2314,-2387,3802,321,100690
12:18:39.711,16980,1019.53125,9.765625,-178.7109375,0.1307251609743753,0.03420845333908886,0.0012217304763960308,-1757,-2320,-2400,3802,321,100690
12:18:39.752,16981,1018.5546875,5.859375,-165.0390625,0.12095131716320705,0.0476474885794452,0.003665191429188092,-1761,-2319,-2384,3802,321,100690
12:18:39.762,16982,1009.765625,-0.0,-154.296875,0.17592918860102844,0.01832595714594046,0.023212879051524585,-1762,-2324,-2390,3802,321,100690
12:18:39.783,16983,1004.8828125,-8.7890625,-150.390625,0.24434609527920617,-0.003665191429188092,0.021991148575128554,-1763,-2319,-2391,3802,321,100690
12:18:39.803,16984,1003.90625,-3.90625,-159.1796875,0.2504547476611863,0.0024434609527920616,0.01710422666954443,-1759,-2328,-2397,3802,321,100690
12:18:39.824,16985,1015.625,-0.0,-160.15625,0.2211332162276816,0.003665191429188092,0.04520402762665313,-1755,-2321,-2395,3802,321,100690
12:18:39.834,16986,1028.3203125,4.8828125,-166.015625,0.24801128670839426,0.014660765716752368,0.03543018381548489,-1758,-2324,-2395,3802,321,100690
12:18:39.855,16987,1030.2734375,-17.578125,-154.296875,0.22602013813326569,0.003665191429188092,0.03420845333908886,-1763,-2325,-2400,3802,321,100690
12:18:39.895,16988,1018.5546875,-35.15625,-147.4609375,0.2663372438543347,-0.013439035240356337,0.02809980095710871,-1757,-2324,-2399,3802,321,100690
12:18:39.916,16989,1004.8828125,-58.59375,-152.34375,0.2553416695667704,-0.026878070480712675,0.021991148575128554,-1758,-2324,-2410,3802,321,100690
12:18:39.926,16990,998.046875,-46.875,-150.390625,0.18448130193580062,-0.03665191429188092,0.004886921905584123,-1763,-2328,-2402,3802,321,100690
12:18:39.946,16991,992.1875,-34.1796875,-140.625,0.09651670763528641,-0.04153883619746505,0.014660765716752368,-1761,-2325,-2413,3802,321,100690
12:18:39.967,16992,993.1640625,-28.3203125,-135.7421875,0.04642575810304917,-0.052534410485029326,0.014660765716752368,-1760,-2324,-2408,3802,321,100690
12:18:39.987,16993,996.09375,-33.203125,-142.578125,0.03543018381548489,-0.058643062867009474,0.009773843811168246,-1764,-2327,-2391,3802,321,100690
12:18:39.997,16994,988.28125,-29.296875,-145.5078125,0.0317649923862968,-0.0635299847725936,-0.009773843811168246,-1765,-2329,-2388,3802,321,100690
12:18:40.17,16995,996.09375,-25.390625,-149.4140625,0.01832595714594046,-0.0317649923862968,0.0,-1758,-2328,-2401,3802,321,100690
12:18:40.38,16996,1000.9765625,-34.1796875,-154.296875,-0.013439035240356337,-0.0476474885794452,-0.009773843811168246,-1757,-2325,-2390,3802,321,100690
12:18:40.58,16997,1000.9765625,-26.3671875,-149.4140625,-0.019547687622336492,-0.013439035240356337,-0.010995574287564277,-1768,-2330,-2400,3802,321,100690
12:18:40.79,16998,1004.8828125,-34.1796875,-143.5546875,-0.025656340004316647,-0.014660765716752368,-0.019547687622336492,-1761,-2328,-2393,3802,321,100690
12:18:40.89,16999,1006.8359375,-31.25,-137.6953125,-0.003665191429188092,-0.007330382858376184,-0.006108652381980153,-1757,-2327,-2393,3802,321,100690
12:18:40.110,17000,994.140625,-34.1796875,-146.484375,0.014660765716752368,0.009773843811168246,-0.003665191429188092,-1761,-2327,-2398,3802,321,100690
12:18:40.130,17001,991.2109375,-19.53125,-158.203125,0.020769418098732523,0.025656340004316647,-0.013439035240356337,-1766,-2326,-2393,3802,321,100690
12:18:40.171,17002,993.1640625,-1.953125,-131.8359375,0.004886921905584123,0.04153883619746505,0.004886921905584123,-1761,-2326,-2398,3814,321,100692
12:18:40.181,17003,1005.859375,-21.484375,-132.8125,0.01710422666954443,0.02809980095710871,-0.014660765716752368,-1758,-2320,-2396,3814,321,100692
12:18:40.201,17004,1022.4609375,-35.15625,-143.5546875,0.025656340004316647,0.024434609527920613,-0.0024434609527920616,-1764,-2328,-2405,3814,321,100692
12:18:40.221,17005,1013.671875,-29.296875,-145.5078125,0.004886921905584123,0.04276056667386108,-0.007330382858376184,-1764,-2327,-2400,3814,321,100692
12:18:40.242,17006,1011.71875,-21.484375,-148.4375,-0.03543018381548489,0.052534410485029326,-0.01710422666954443,-1755,-2323,-2395,3814,321,100692
12:18:40.252,17007,1016.6015625,-8.7890625,-153.3203125,-0.029321531433504737,0.05375614096142535,-0.0158824961931484,-1766,-2324,-2405,3814,321,100692
12:18:40.272,17008,1014.6484375,-19.53125,-146.484375,-0.03054326190990077,0.05375614096142535,-0.0317649923862968,-1764,-2324,-2402,3814,321,100692
12:18:40.313,17009,1014.6484375,-25.390625,-142.578125,-0.03420845333908886,0.05742133239061345,-0.029321531433504737,-1765,-2329,-2396,3814,321,100692
12:18:40.333,17010,1007.8125,-31.25,-147.4609375,-0.0476474885794452,0.07330382858376185,-0.04276056667386108,-1756,-2326,-2400,3814,321,100692
12:18:40.343,17011,1005.859375,-32.2265625,-157.2265625,-0.03787364476827696,0.05619960191421742,-0.02809980095710871,-1761,-2326,-2396,3814,321,100692
12:18:40.364,17012,1011.71875,-11.71875,-153.3203125,-0.052534410485029326,0.05742133239061345,-0.04520402762665313,-1764,-2326,-2393,3814,321,100692
12:18:40.384,17013,1009.765625,0.9765625,-148.4375,-0.03665191429188092,0.05986479334340551,-0.02809980095710871,-1745,-2320,-2406,3814,321,100692
12:18:40.404,17014,1011.71875,-11.71875,-138.671875,-0.009773843811168246,0.04520402762665313,-0.05375614096142535,-1766,-2328,-2392,3814,321,100692
12:18:40.424,17015,1005.859375,-24.4140625,-145.5078125,0.007330382858376184,0.039095375244672985,-0.03787364476827696,-1767,-2332,-2410,3814,321,100692
12:18:40.435,17016,1007.8125,-31.25,-144.53125,-0.023212879051524585,0.03298672286269283,-0.03787364476827696,-1754,-2326,-2399,3814,321,100692
12:18:40.455,17017,1021.484375,-30.2734375,-151.3671875,-0.04276056667386108,0.01832595714594046,-0.039095375244672985,-1757,-2319,-2398,3814,321,100692
12:18:40.475,17018,1020.5078125,-14.6484375,-145.5078125,-0.07086036763096978,0.020769418098732523,-0.052534410485029326,-1767,-2325,-2405,3814,321,100692
12:18:40.495,17019,1013.671875,-17.578125,-147.4609375,-0.07086036763096978,0.019547687622336492,-0.023212879051524585,-1763,-2319,-2403,3814,321,100692
12:18:40.516,17020,1007.8125,-18.5546875,-143.5546875,-0.07086036763096978,-0.0012217304763960308,-0.04398229715025711,-1750,-2314,-2409,3814,321,100692
12:18:40.526,17021,1010.7421875,-22.4609375,-145.5078125,-0.0830776723949301,0.0012217304763960308,-0.03665191429188092,-1760,-2322,-2424,3814,321,100692
12:18:40.546,17022,1007.8125,5.859375,-141.6015625,-0.07696902001294993,-0.012217304763960306,-0.026878070480712675,-1770,-2322,-2406,3814,321,100692
12:18:40.587,17023,1008.7890625,1.953125,-135.7421875,-0.048869219055841226,-0.01832595714594046,-0.007330382858376184,-1756,-2320,-2415,3814,321,100692
12:18:40.597,17024,1022.4609375,-0.0,-144.53125,-0.03787364476827696,-0.020769418098732523,0.0024434609527920616,-1757,-2321,-2416,3814,321,100692
12:18:40.617,17025,1014.6484375,-24.4140625,-148.4375,-0.039095375244672985,-0.021991148575128554,-0.019547687622336492,-1760,-2327,-2413,3814,321,100692
12:18:40.638,17026,1010.7421875,-13.671875,-138.671875,-0.06841690667817772,-0.021991148575128554,-0.01710422666954443,-1760,-2324,-2409,3814,321,100692
12:18:40.659,17027,1019.53125,-2.9296875,-128.90625,-0.09285151620609834,-0.0158824961931484,-0.007330382858376184,-1747,-2315,-2406,3814,321,100692
12:18:40.679,17028,1011.71875,3.90625,-126.953125,-0.052534410485029326,-0.024434609527920613,0.0,-1758,-2323,-2402,3814,321,100692
12:18:40.689,17029,1018.5546875,12.6953125,-137.6953125,-0.014660765716752368,-0.0158824961931484,-0.021991148575128554,-1761,-2316,-2410,3814,321,100692
12:18:40.730,17030,1009.765625,2.9296875,-146.484375,-0.023212879051524585,-0.003665191429188092,-0.023212879051524585,-1756,-2316,-2405,3814,321,100692
12:18:40.750,17031,1008.7890625,-11.71875,-149.4140625,-0.026878070480712675,-0.024434609527920613,-0.0024434609527920616,-1763,-2321,-2402,3814,321,100692
12:18:40.771,17032,1018.5546875,-14.6484375,-148.4375,-0.03543018381548489,0.0012217304763960308,-0.014660765716752368,-1759,-2316,-2406,3814,321,100692
12:18:40.781,17033,1013.671875,-20.5078125,-144.53125,-0.039095375244672985,0.007330382858376184,0.010995574287564277,-1756,-2322,-2396,3814,321,100692
12:18:40.801,17034,1016.6015625,0.9765625,-136.71875,-0.039095375244672985,0.004886921905584123,-0.0012217304763960308,-1754,-2319,-2402,3814,321,100692
12:18:40.821,17035,1017.578125,2.9296875,-131.8359375,-0.05375614096142535,-0.0024434609527920616,0.0,-1758,-2322,-2414,3814,321,100692
12:18:40.842,17036,1004.8828125,11.71875,-138.671875,-0.01832595714594046,-0.0024434609527920616,-0.007330382858376184,-1757,-2317,-2386,3814,321,100692
12:18:40.873,17037,1004.8828125,-5.859375,-149.4140625,-0.013439035240356337,-0.013439035240356337,-0.0024434609527920616,-1754,-2321,-2400,3814,321,100692
12:18:40.893,17038,1008.7890625,-7.8125,-148.4375,-0.0024434609527920616,0.01832595714594046,-0.008552113334772215,-1754,-2316,-2395,3814,321,100692
12:18:40.914,17039,1013.671875,-26.3671875,-143.5546875,-0.024434609527920613,0.003665191429188092,-0.006108652381980153,-1759,-2321,-2394,3814,321,100692
12:18:40.934,17040,1015.625,-9.765625,-154.296875,-0.025656340004316647,-0.007330382858376184,0.0,-1761,-2316,-2402,3814,321,100692
12:18:40.944,17041,1008.7890625,4.8828125,-134.765625,-0.04276056667386108,-0.0012217304763960308,-0.004886921905584123,-1757,-2317,-2405,3814,321,100692
12:18:40.965,17042,1015.625,4.8828125,-136.71875,-0.04642575810304917,-0.0024434609527920616,-0.0024434609527920616,-1758,-2321,-2393,3814,321,100692
12:18:40.985,17043,1014.6484375,-0.0,-145.5078125,-0.024434609527920613,-0.025656340004316647,0.0,-1750,-2316,-2397,3814,321,100692
12:18:41.6,17044,1006.8359375,-15.625,-146.484375,-0.007330382858376184,-0.02809980095710871,0.0012217304763960308,-1756,-2316,-2405,3814,321,100692
12:18:41.16,17045,1010.7421875,-7.8125,-148.4375,-0.004886921905584123,-0.014660765716752368,0.014660765716752368,-1760,-2320,-2403,3814,321,100692
12:18:41.36,17046,1008.7890625,-6.8359375,-139.6484375,-0.003665191429188092,0.006108652381980153,0.0024434609527920616,-1758,-2322,-2400,3814,321,100692
12:18:41.57,17047,1007.8125,-1.953125,-137.6953125,-0.0317649923862968,-0.006108652381980153,0.004886921905584123,-1757,-2318,-2395,3814,321,100692
12:18:41.149,17048,1010.7421875,-2.9296875,-141.6015625,-0.02809980095710871,-0.026878070480712675,0.0024434609527920616,-1752,-2317,-2398,3814,321,100692
12:18:41.170,17049,1005.859375,-7.8125,-136.71875,-0.003665191429188092,-0.008552113334772215,0.0012217304763960308,-1762,-2326,-2404,3814,321,100692
12:18:41.180,17050,1010.7421875,-10.7421875,-144.53125,-0.007330382858376184,-0.006108652381980153,0.014660765716752368,-1759,-2326,-2405,3814,321,100692
12:18:41.200,17051,1011.71875,1.953125,-143.5546875,0.0012217304763960308,-0.009773843811168246,-0.0024434609527920616,-1761,-2319,-2399,3814,321,100692
12:18:41.220,17052,1017.578125,-12.6953125,-132.8125,-0.014660765716752368,-0.026878070480712675,0.0024434609527920616,-1759,-2320,-2409,3820,321,100694
12:18:41.241,17053,1013.671875,-14.6484375,-143.5546875,-0.013439035240356337,-0.006108652381980153,0.0012217304763960308,-1760,-2319,-2405,3820,321,100694
12:18:41.261,17054,1006.8359375,-14.6484375,-142.578125,-0.0158824961931484,-0.024434609527920613,0.006108652381980153,-1759,-2320,-2400,3820,321,100694
12:18:41.271,17055,1019.53125,6.8359375,-139.6484375,-0.008552113334772215,0.0,0.010995574287564277,-1743,-2312,-2395,3820,321,100694
12:18:41.292,17056,1021.484375,-4.8828125,-140.625,0.003665191429188092,-0.003665191429188092,-0.0012217304763960308,-1760,-2320,-2402,3820,321,100694
12:18:41.312,17057,1006.8359375,-23.4375,-148.4375,0.029321531433504737,-0.009773843811168246,-0.0012217304763960308,-1762,-2324,-2400,3820,321,100694
12:18:41.333,17058,1004.8828125,-32.2265625,-139.6484375,-0.009773843811168246,-0.01710422666954443,0.013439035240356337,-1758,-2319,-2399,3820,321,100694
12:18:41.353,17059,1009.765625,-13.671875,-137.6953125,-0.03543018381548489,-0.0158824961931484,0.0158824961931484,-1757,-2324,-2388,3820,321,100694
12:18:41.363,17060,1005.859375,1.953125,-138.671875,-0.024434609527920613,-0.019547687622336492,0.01710422666954443,-1764,-2324,-2401,3820,321,100694
12:18:41.384,17061,1008.7890625,5.859375,-131.8359375,-0.003665191429188092,-0.007330382858376184,0.004886921905584123,-1759,-2324,-2394,3820,321,100694
12:18:41.404,17062,1004.8828125,2.9296875,-133.7890625,-0.007330382858376184,-0.003665191429188092,0.007330382858376184,-1745,-2322,-2391,3820,321,100694
12:18:41.425,17063,1001.953125,-17.578125,-139.6484375,-0.007330382858376184,-0.01710422666954443,0.009773843811168246,-1764,-2324,-2402,3820,321,100694
12:18:41.435,17064,1006.8359375,-28.3203125,-141.6015625,-0.0024434609527920616,-0.01832595714594046,0.007330382858376184,-1763,-2325,-2403,3820,321,100694
12:18:41.455,17065,1015.625,0.9765625,-137.6953125,-0.008552113334772215,-0.003665191429188092,0.006108652381980153,-1762,-2320,-2403,3820,321,100694
12:18:41.475,17066,1022.4609375,-1.953125,-121.09375,-0.052534410485029326,-0.012217304763960306,0.0,-1756,-2320,-2404,3820,321,100694
12:18:41.496,17067,1021.484375,-7.8125,-137.6953125,-0.03543018381548489,-0.012217304763960306,-0.004886921905584123,-1761,-2327,-2394,3820,321,100694
12:18:41.516,17068,1007.8125,-16.6015625,-148.4375,-0.03298672286269283,0.012217304763960306,0.0,-1759,-2326,-2401,3820,321,100694
12:18:41.527,17069,1001.953125,-2.9296875,-144.53125,-0.024434609527920613,0.004886921905584123,0.0,-1759,-2325,-2395,3820,321,100694
12:18:41.547,17070,1005.859375,-14.6484375,-141.6015625,-0.039095375244672985,0.012217304763960306,0.0024434609527920616,-1754,-2322,-2408,3820,321,100694
12:18:41.568,17071,1018.5546875,-0.9765625,-143.5546875,-0.0158824961931484,0.020769418098732523,-0.0024434609527920616,-1756,-2327,-2411,3820,321,100694
12:18:41.588,17072,1009.765625,0.9765625,-140.625,-0.020769418098732523,0.026878070480712675,0.0012217304763960308,-1757,-2320,-2396,3820,321,100694
12:18:41.599,17073,1008.7890625,0.9765625,-133.7890625,-0.025656340004316647,0.010995574287564277,0.0,-1756,-2324,-2403,3820,321,100694
12:18:41.619,17074,1009.765625,-17.578125,-147.4609375,0.021991148575128554,0.013439035240356337,-0.0012217304763960308,-1766,-2325,-2402,3820,321,100694
12:18:41.640,17075,1010.7421875,-20.5078125,-155.2734375,-0.007330382858376184,0.01832595714594046,-0.0024434609527920616,-1762,-2326,-2388,3820,321,100694
12:18:41.660,17076,1006.8359375,-1.953125,-147.4609375,-0.008552113334772215,0.01832595714594046,-0.003665191429188092,-1753,-2321,-2396,3820,321,100694
12:18:41.681,17077,1013.671875,0.9765625,-136.71875,-0.013439035240356337,0.004886921905584123,-0.004886921905584123,-1758,-2323,-2400,3820,321,100694
12:18:41.691,17078,1021.484375,2.9296875,-134.765625,-0.009773843811168246,0.009773843811168246,0.0024434609527920616,-1762,-2326,-2406,3820,321,100694
12:18:41.712,17079,1018.5546875,-11.71875,-135.7421875,-0.0158824961931484,0.007330382858376184,-0.007330382858376184,-1759,-2324,-2409,3820,321,100694
12:18:41.732,17080,1017.578125,-7.8125,-152.34375,0.0,0.003665191429188092,-0.0012217304763960308,-1758,-2329,-2398,3820,321,100694
12:18:41.753,17081,1018.5546875,-11.71875,-143.5546875,0.0024434609527920616,-0.007330382858376184,0.0,-1756,-2328,-2404,3820,321,100694
12:18:41.763,17082,1018.5546875,-11.71875,-149.4140625,-0.012217304763960306,-0.01832595714594046,-0.0024434609527920616,-1757,-2323,-2407,3820,321,100694
12:18:41.783,17083,1013.671875,-10.7421875,-140.625,-0.020769418098732523,-0.014660765716752368,0.004886921905584123,-1750,-2321,-2393,3820,321,100694
12:18:41.804,17084,1002.9296875,-6.8359375,-134.765625,-0.026878070480712675,-0.007330382858376184,-0.0012217304763960308,-1755,-2326,-2403,3820,321,100694
12:18:41.824,17085,1009.765625,4.8828125,-134.765625,-0.0024434609527920616,-0.026878070480712675,0.0,-1762,-2324,-2391,3820,321,100694
12:18:41.845,17086,1014.6484375,-0.9765625,-130.859375,0.012217304763960306,-0.025656340004316647,0.012217304763960306,-1756,-2325,-2411,3820,321,100694
12:18:41.855,17087,1008.7890625,-10.7421875,-133.7890625,-0.007330382858376184,-0.013439035240356337,0.008552113334772215,-1757,-2329,-2400,3820,321,100694
12:18:41.875,17088,1009.765625,-24.4140625,-143.5546875,-0.0012217304763960308,-0.009773843811168246,-0.0024434609527920616,-1757,-2326,-2406,3820,321,100694
12:18:41.896,17089,1014.6484375,-23.4375,-139.6484375,0.020769418098732523,-0.026878070480712675,0.01832595714594046,-1755,-2325,-2390,3820,321,100694
12:18:41.916,17090,1008.7890625,-9.765625,-133.7890625,-0.003665191429188092,-0.01832595714594046,0.021991148575128554,-1744,-2323,-2400,3820,321,100694
12:18:41.936,17091,1001.953125,-4.8828125,-132.8125,-0.0012217304763960308,0.0024434609527920616,0.020769418098732523,-1757,-2323,-2394,3820,321,100694
12:18:41.947,17092,999.0234375,1.953125,-140.625,0.003665191429188092,-0.004886921905584123,0.006108652381980153,-1758,-2321,-2400,3820,321,100694
12:18:41.987,17093,1006.8359375,-5.859375,-136.71875,0.024434609527920613,-0.0012217304763960308,0.014660765716752368,-1758,-2325,-2400,3820,321,100694
12:18:42.8,17094,1013.671875,-26.3671875,-140.625,0.04642575810304917,-0.0012217304763960308,0.014660765716752368,-1743,-2321,-2394,3820,321,100694
12:18:42.18,17095,1015.625,-29.296875,-140.625,0.004886921905584123,0.014660765716752368,0.0158824961931484,-1753,-2328,-2395,3820,321,100694
12:18:42.38,17096,1024.4140625,-18.5546875,-136.71875,-0.023212879051524585,0.006108652381980153,0.013439035240356337,-1761,-2326,-2410,3820,321,100694
12:18:42.59,17097,1022.4609375,-9.765625,-130.859375,-0.039095375244672985,-0.0024434609527920616,0.021991148575128554,-1755,-2325,-2402,3820,321,100694
12:18:42.79,17098,1009.765625,-10.7421875,-132.8125,-0.0024434609527920616,0.003665191429188092,0.0158824961931484,-1757,-2327,-2399,3820,321,100694
12:18:42.99,17099,1003.90625,-7.8125,-132.8125,-0.008552113334772215,0.019547687622336492,0.007330382858376184,-1760,-2335,-2403,3820,321,100694
12:18:42.130,17100,1006.8359375,-16.6015625,-141.6015625,0.008552113334772215,0.020769418098732523,0.006108652381980153,-1754,-2327,-2399,3820,321,100694
12:18:42.150,17101,1010.7421875,-18.5546875,-134.765625,0.004886921905584123,0.003665191429188092,0.009773843811168246,-1753,-2326,-2407,3820,321,100694
12:18:42.171,17102,1010.7421875,-2.9296875,-136.71875,0.012217304763960306,0.020769418098732523,0.014660765716752368,-1759,-2326,-2397,3814,321,100692
12:18:42.191,17103,1023.4375,-8.7890625,-130.859375,0.010995574287564277,0.010995574287564277,-0.0024434609527920616,-1755,-2328,-2399,3814,321,100692
12:18:42.202,17104,1021.484375,-21.484375,-135.7421875,0.004886921905584123,0.008552113334772215,0.007330382858376184,-1747,-2315,-2404,3814,321,100692
12:18:42.222,17105,1019.53125,-33.203125,-139.6484375,0.004886921905584123,-0.004886921905584123,-0.003665191429188092,-1756,-2323,-2398,3814,321,100692
12:18:42.242,17106,1005.859375,-19.53125,-144.53125,-0.019547687622336492,0.0158824961931484,0.004886921905584123,-1755,-2325,-2412,3814,321,100692
12:18:42.262,17107,1008.7890625,-24.4140625,-138.671875,-0.03054326190990077,0.007330382858376184,-0.004886921905584123,-1739,-2321,-2398,3814,321,100692
12:18:42.283,17108,1006.8359375,-16.6015625,-140.625,-0.020769418098732523,-0.006108652381980153,-0.004886921905584123,-1754,-2328,-2401,3814,321,100692
12:18:42.293,17109,1001.953125,-20.5078125,-136.71875,-0.020769418098732523,-0.003665191429188092,-0.009773843811168246,-1755,-2327,-2408,3814,321,100692
12:18:42.313,17110,1003.90625,-25.390625,-141.6015625,-0.03298672286269283,-0.024434609527920613,-0.0158824961931484,-1755,-2326,-2412,3814,321,100692
12:18:42.334,17111,1006.8359375,-33.203125,-140.625,-0.05497787143782139,-0.01710422666954443,-0.0158824961931484,-1747,-2324,-2410,3814,321,100692
12:18:42.354,17112,1021.484375,5.859375,-141.6015625,-0.04153883619746505,-0.009773843811168246,-0.004886921905584123,-1756,-2330,-2412,3814,321,100692
12:18:42.364,17113,1034.1796875,29.296875,-115.234375,-0.08429940287132612,0.014660765716752368,-0.01832595714594046,-1755,-2330,-2403,3814,321,100692
12:18:42.405,17114,1025.390625,11.71875,-113.28125,-0.03665191429188092,-0.019547687622336492,-0.03420845333908886,-1754,-2327,-2409,3814,321,100692
12:18:42.426,17115,1011.71875,-11.71875,-137.6953125,0.0012217304763960308,-0.01710422666954443,-0.020769418098732523,-1758,-2328,-2413,3814,321,100692
12:18:42.447,17116,1003.90625,-25.390625,-149.4140625,-0.009773843811168246,0.004886921905584123,-0.02809980095710871,-1759,-2326,-2404,3814,321,100692
12:18:42.457,17117,1008.7890625,-36.1328125,-158.203125,-0.03543018381548489,-0.01832595714594046,-0.01832595714594046,-1761,-2329,-2413,3814,321,100692
12:18:42.478,17118,1005.859375,-16.6015625,-150.390625,-0.004886921905584123,-0.024434609527920613,-0.010995574287564277,-1752,-2324,-2401,3814,321,100692
12:18:42.498,17119,1014.6484375,-9.765625,-126.953125,-0.0024434609527920616,-0.025656340004316647,-0.0024434609527920616,-1756,-2331,-2414,3814,321,100692
12:18:42.519,17120,1015.625,-0.9765625,-125.9765625,0.0,-0.010995574287564277,-0.0012217304763960308,-1757,-2329,-2404,3814,321,100692
12:18:42.549,17121,1007.8125,-11.71875,-131.8359375,0.006108652381980153,-0.0024434609527920616,-0.0158824961931484,-1754,-2328,-2392,3814,321,100692
12:18:42.570,17122,1011.71875,-16.6015625,-137.6953125,0.007330382858376184,-0.013439035240356337,-0.0012217304763960308,-1758,-2328,-2392,3814,321,100692
12:18:42.591,17123,1011.71875,-27.34375,-143.5546875,-0.0024434609527920616,-0.023212879051524585,-0.0012217304763960308,-1754,-2322,-2395,3814,321,100692
12:18:42.611,17124,1017.578125,-15.625,-133.7890625,-0.023212879051524585,-0.013439035240356337,0.0,-1758,-2327,-2395,3814,321,100692
12:18:42.621,17125,1009.765625,-16.6015625,-133.7890625,-0.0158824961931484,-0.013439035240356337,0.003665191429188092,-1752,-2325,-2398,3814,321,100692
12:18:42.642,17126,1006.8359375,-21.484375,-136.71875,0.0,-0.019547687622336492,0.021991148575128554,-1758,-2324,-2398,3814,321,100692
12:18:42.662,17127,1017.578125,-24.4140625,-139.6484375,0.004886921905584123,-0.008552113334772215,0.014660765716752368,-1760,-2322,-2408,3814,321,100692
12:18:42.754,17128,1006.8359375,-11.71875,-137.6953125,-0.014660765716752368,-0.008552113334772215,0.009773843811168246,-1761,-2325,-2409,3814,321,100692
12:18:42.774,17129,1015.625,-10.7421875,-140.625,-0.04520402762665313,0.003665191429188092,0.020769418098732523,-1758,-2324,-2407,3814,321,100692
