Timestamp,SampleNr,AccX [mg],AccY [mg],AccZ [mg],GyrX [rad/s],GyrY [rad/s],GyrZ [rad/s],MagX [mGs],MagY [mGs],-MagZ [mGs],Battery [mV],Temperature [0.1C],Pressure[Pa]
12:7:3.804,20709,221.6796875,600.5859375,-761.71875,-0.020769418098732523,-0.03420845333908886,-0.01832595714594046,-1670,-492,711,4048,332,100679
12:7:3.825,20710,221.6796875,606.4453125,-761.71875,-0.021991148575128554,-0.03420845333908886,-0.025656340004316647,-1675,-493,700,4048,332,100679
12:7:3.835,20711,217.7734375,596.6796875,-760.7421875,-0.021991148575128554,-0.0317649923862968,-0.02809980095710871,-1675,-493,700,4048,332,100679
12:7:3.876,20712,218.75,605.46875,-766.6015625,-0.03298672286269283,-0.03543018381548489,-0.025656340004316647,-1675,-493,700,4048,332,100679
12:7:3.896,20713,222.65625,597.65625,-761.71875,-0.010995574287564277,-0.04276056667386108,-0.025656340004316647,-1675,-493,700,4048,332,100679
12:7:3.907,20714,221.6796875,599.609375,-750.9765625,-0.003665191429188092,-0.03787364476827696,-0.023212879051524585,-1683,-495,700,4048,332,100679
12:7:3.927,20715,222.65625,596.6796875,-756.8359375,0.009773843811168246,-0.052534410485029326,-0.008552113334772215,-1683,-495,700,4048,332,100679
12:7:3.947,20716,220.703125,606.4453125,-753.90625,-0.01710422666954443,-0.05497787143782139,-0.02809980095710871,-1683,-495,700,4048,332,100679
12:7:3.968,20717,218.75,606.4453125,-751.953125,-0.023212879051524585,-0.05497787143782139,-0.021991148575128554,-1683,-495,700,4048,332,100679
12:7:3.989,20718,221.6796875,603.515625,-766.6015625,-0.0317649923862968,-0.05497787143782139,-0.010995574287564277,-1683,-495,700,4048,332,100679
12:7:3.999,20719,223.6328125,610.3515625,-760.7421875,-0.012217304763960306,-0.05742133239061345,-0.014660765716752368,-1677,-499,706,4048,332,100679
12:7:4.19,20720,218.75,595.703125,-767.578125,-0.010995574287564277,-0.051312680008633295,-0.0012217304763960308,-1677,-499,706,4048,332,100679
12:7:4.40,20721,222.65625,603.515625,-766.6015625,-0.006108652381980153,-0.0476474885794452,0.0024434609527920616,-1677,-499,706,4048,332,100679
12:7:4.61,20722,217.7734375,601.5625,-763.671875,0.012217304763960306,-0.048869219055841226,-0.0024434609527920616,-1677,-499,706,4048,332,100679
12:7:4.81,20723,219.7265625,606.4453125,-770.5078125,0.0158824961931484,-0.05497787143782139,0.007330382858376184,-1677,-499,706,4048,332,100679
12:7:4.92,20724,220.703125,600.5859375,-775.390625,0.0024434609527920616,-0.04642575810304917,0.013439035240356337,-1674,-491,704,4048,332,100679
12:7:4.112,20725,215.8203125,598.6328125,-760.7421875,-0.010995574287564277,-0.04642575810304917,0.004886921905584123,-1674,-491,704,4048,332,100679
12:7:4.153,20726,217.7734375,599.609375,-762.6953125,0.003665191429188092,-0.03543018381548489,0.0012217304763960308,-1674,-491,704,4048,332,100679
12:7:4.163,20727,218.75,599.609375,-765.625,-0.019547687622336492,-0.039095375244672985,0.006108652381980153,-1674,-491,704,4048,332,100679
12:7:4.183,20728,225.5859375,599.609375,-761.71875,-0.010995574287564277,-0.020769418098732523,-0.006108652381980153,-1678,-490,703,4048,332,100679
12:7:4.204,20729,220.703125,596.6796875,-762.6953125,-0.020769418098732523,-0.0317649923862968,0.007330382858376184,-1678,-490,703,4048,332,100679
12:7:4.224,20730,221.6796875,594.7265625,-757.8125,-0.025656340004316647,-0.03420845333908886,-0.0158824961931484,-1678,-490,703,4048,332,100679
12:7:4.245,20731,221.6796875,591.796875,-758.7890625,-0.009773843811168246,-0.019547687622336492,-0.0158824961931484,-1678,-490,703,4048,332,100679
12:7:4.255,20732,221.6796875,588.8671875,-762.6953125,-0.014660765716752368,-0.03787364476827696,-0.003665191429188092,-1678,-490,703,4048,332,100679
12:7:4.275,20733,223.6328125,598.6328125,-760.7421875,-0.012217304763960306,-0.05375614096142535,-0.007330382858376184,-1673,-495,699,4048,332,100679
12:7:4.296,20734,218.75,593.75,-760.7421875,-0.012217304763960306,-0.048869219055841226,-0.0158824961931484,-1673,-495,699,4048,332,100679
12:7:4.316,20735,220.703125,597.65625,-757.8125,-0.0024434609527920616,-0.04642575810304917,-0.02809980095710871,-1673,-495,699,4048,332,100679
12:7:4.336,20736,216.796875,598.6328125,-763.671875,0.007330382858376184,-0.04031710572106901,-0.01710422666954443,-1673,-495,699,4048,332,100679
12:7:4.347,20737,219.7265625,600.5859375,-758.7890625,-0.019547687622336492,-0.05497787143782139,-0.0317649923862968,-1673,-495,699,4048,332,100679
12:7:4.367,20738,218.75,591.796875,-761.71875,-0.0317649923862968,-0.06230825429619757,-0.03665191429188092,-1674,-493,710,4048,332,100679
12:7:4.388,20739,216.796875,604.4921875,-772.4609375,-0.039095375244672985,-0.06108652381980154,-0.029321531433504737,-1674,-493,710,4048,332,100679
12:7:4.419,20740,215.8203125,612.3046875,-768.5546875,-0.004886921905584123,-0.06475171524898964,-0.023212879051524585,-1674,-493,710,4048,332,100679
12:7:4.439,20741,217.7734375,595.703125,-769.53125,0.0012217304763960308,-0.05619960191421742,-0.02809980095710871,-1674,-493,710,4048,332,100679
12:7:4.460,20742,212.890625,589.84375,-770.5078125,-0.01710422666954443,-0.05375614096142535,-0.01832595714594046,-1669,-490,702,4048,332,100679
12:7:4.480,20743,216.796875,602.5390625,-774.4140625,-0.007330382858376184,-0.04153883619746505,-0.021991148575128554,-1669,-490,702,4048,332,100679
12:7:4.491,20744,218.75,616.2109375,-767.578125,-0.01710422666954443,-0.04398229715025711,-0.014660765716752368,-1669,-490,702,4048,332,100679
12:7:4.511,20745,212.890625,614.2578125,-772.4609375,0.0024434609527920616,-0.03665191429188092,-0.01710422666954443,-1669,-490,702,4048,332,100679
12:7:4.532,20746,214.84375,596.6796875,-770.5078125,0.0,-0.04031710572106901,-0.0012217304763960308,-1669,-490,702,4048,332,100679
12:7:4.563,20747,221.6796875,602.5390625,-770.5078125,-0.003665191429188092,-0.0476474885794452,-0.0024434609527920616,-1674,-497,687,4048,332,100679
12:7:4.583,20748,214.84375,602.5390625,-763.671875,-0.0158824961931484,-0.021991148575128554,-0.009773843811168246,-1674,-497,687,4048,332,100679
12:7:4.604,20749,215.8203125,595.703125,-772.4609375,-0.012217304763960306,-0.029321531433504737,-0.014660765716752368,-1674,-497,687,4048,332,100679
12:7:4.624,20750,217.7734375,598.6328125,-768.5546875,-0.04276056667386108,-0.026878070480712675,-0.010995574287564277,-1674,-497,687,4048,332,100679
12:7:4.644,20751,218.75,606.4453125,-760.7421875,-0.0317649923862968,-0.01832595714594046,0.0012217304763960308,-1674,-497,687,4048,332,100679
12:7:4.655,20752,214.84375,603.515625,-759.765625,-0.0024434609527920616,-0.023212879051524585,-0.0024434609527920616,-1682,-496,697,4042,332,100682
12:7:4.675,20753,216.796875,590.8203125,-762.6953125,-0.008552113334772215,-0.019547687622336492,0.006108652381980153,-1682,-496,697,4042,332,100682
12:7:4.717,20754,216.796875,596.6796875,-763.671875,-0.019547687622336492,-0.02809980095710871,0.0012217304763960308,-1682,-496,697,4042,332,100682
12:7:4.737,20755,219.7265625,600.5859375,-761.71875,-0.013439035240356337,-0.026878070480712675,0.006108652381980153,-1682,-496,697,4042,332,100682
12:7:4.747,20756,215.8203125,608.3984375,-764.6484375,-0.01832595714594046,-0.03543018381548489,-0.0024434609527920616,-1677,-494,702,4042,332,100682
12:7:4.768,20757,219.7265625,599.609375,-758.7890625,0.003665191429188092,-0.03543018381548489,0.006108652381980153,-1677,-494,702,4042,332,100682
12:7:4.789,20758,212.890625,594.7265625,-760.7421875,0.01832595714594046,-0.04642575810304917,0.003665191429188092,-1677,-494,702,4042,332,100682
12:7:4.809,20759,219.7265625,588.8671875,-763.671875,0.003665191429188092,-0.0476474885794452,0.003665191429188092,-1677,-494,702,4042,332,100682
12:7:4.820,20760,219.7265625,603.515625,-759.765625,-0.021991148575128554,-0.05742133239061345,-0.0012217304763960308,-1677,-494,702,4042,332,100682
12:7:4.840,20761,216.796875,615.234375,-764.6484375,-0.023212879051524585,-0.06108652381980154,-0.0012217304763960308,-1680,-499,695,4042,332,100682
12:7:4.861,20762,217.7734375,603.515625,-766.6015625,0.003665191429188092,-0.051312680008633295,0.003665191429188092,-1680,-499,695,4042,332,100682
12:7:4.881,20763,219.7265625,593.75,-769.53125,0.013439035240356337,-0.05009094953223726,0.010995574287564277,-1680,-499,695,4042,332,100682
12:7:4.902,20764,215.8203125,606.4453125,-775.390625,0.0,-0.05742133239061345,0.0158824961931484,-1680,-499,695,4042,332,100682
12:7:4.912,20765,208.984375,603.515625,-778.3203125,0.007330382858376184,-0.0317649923862968,0.014660765716752368,-1680,-499,695,4042,332,100682
12:7:4.932,20766,214.84375,591.796875,-778.3203125,0.012217304763960306,-0.03420845333908886,0.008552113334772215,-1682,-497,714,4042,332,100682
12:7:4.952,20767,217.7734375,600.5859375,-780.2734375,0.008552113334772215,-0.0317649923862968,0.013439035240356337,-1682,-497,714,4042,332,100682
12:7:4.983,20768,216.796875,599.609375,-771.484375,0.029321531433504737,-0.0317649923862968,0.025656340004316647,-1682,-497,714,4042,332,100682
12:7:5.3,20769,213.8671875,592.7734375,-768.5546875,0.01710422666954443,-0.03543018381548489,0.03420845333908886,-1682,-497,714,4042,332,100682
12:7:5.23,20770,219.7265625,598.6328125,-770.5078125,0.003665191429188092,-0.02809980095710871,0.02809980095710871,-1682,-497,714,4042,332,100682
12:7:5.43,20771,219.7265625,595.703125,-766.6015625,0.006108652381980153,-0.025656340004316647,0.01710422666954443,-1678,-496,709,4042,332,100682
12:7:5.64,20772,214.84375,578.125,-760.7421875,0.0012217304763960308,-0.02809980095710871,0.010995574287564277,-1678,-496,709,4042,332,100682
12:7:5.75,20773,212.890625,568.359375,-763.671875,-0.014660765716752368,-0.04520402762665313,0.003665191429188092,-1678,-496,709,4042,332,100682
12:7:5.95,20774,222.65625,586.9140625,-765.625,-0.0012217304763960308,-0.05619960191421742,-0.0012217304763960308,-1678,-496,709,4042,332,100682
12:7:5.136,20775,224.609375,603.515625,-753.90625,0.0158824961931484,-0.07574728953655392,0.0,-1675,-497,704,4042,332,100682
12:7:5.146,20776,217.7734375,598.6328125,-758.7890625,0.05497787143782139,-0.07819075048934597,0.007330382858376184,-1675,-497,704,4042,332,100682
12:7:5.167,20777,216.796875,581.0546875,-752.9296875,0.06597344572538566,-0.08552113334772216,-0.0158824961931484,-1675,-497,704,4042,332,100682
12:7:5.188,20778,215.8203125,560.546875,-760.7421875,0.01710422666954443,-0.0830776723949301,0.0012217304763960308,-1675,-497,704,4042,332,100682
12:7:5.209,20779,221.6796875,585.9375,-773.4375,-0.03054326190990077,-0.07086036763096978,-0.029321531433504737,-1675,-497,704,4042,332,100682
12:7:5.220,20780,214.84375,602.5390625,-780.2734375,-0.04153883619746505,-0.052534410485029326,-0.025656340004316647,-1674,-499,699,4042,332,100682
12:7:5.241,20781,208.984375,601.5625,-790.0390625,-0.021991148575128554,-0.05742133239061345,-0.021991148575128554,-1674,-499,699,4042,332,100682
12:7:5.262,20782,217.7734375,600.5859375,-783.203125,-0.01832595714594046,-0.0635299847725936,-0.0158824961931484,-1674,-499,699,4042,332,100682
12:7:5.282,20783,217.7734375,592.7734375,-780.2734375,0.0024434609527920616,-0.05742133239061345,-0.013439035240356337,-1674,-499,699,4042,332,100682
12:7:5.303,20784,211.9140625,585.9375,-775.390625,0.007330382858376184,-0.04642575810304917,-0.024434609527920613,-1674,-499,699,4042,332,100682
12:7:5.313,20785,209.9609375,578.125,-775.390625,-0.014660765716752368,-0.03665191429188092,-0.012217304763960306,-1678,-496,699,4042,332,100682
12:7:5.333,20786,210.9375,593.75,-777.34375,-0.019547687622336492,-0.039095375244672985,-0.003665191429188092,-1678,-496,699,4042,332,100682
12:7:5.354,20787,217.7734375,596.6796875,-767.578125,0.006108652381980153,-0.023212879051524585,-0.01832595714594046,-1678,-496,699,4042,332,100682
12:7:5.375,20788,213.8671875,582.03125,-763.671875,-0.0012217304763960308,-0.04276056667386108,-0.008552113334772215,-1678,-496,699,4042,332,100682
12:7:5.477,20789,210.9375,570.3125,-755.859375,0.004886921905584123,-0.051312680008633295,-0.014660765716752368,-1675,-495,710,4042,332,100682
12:7:5.497,20790,213.8671875,565.4296875,-749.0234375,-0.012217304763960306,-0.06841690667817772,-0.03420845333908886,-1675,-495,710,4042,332,100682
12:7:5.518,20791,207.03125,566.40625,-750.0,-0.01832595714594046,-0.0867428638241182,-0.04642575810304917,-1675,-495,710,4042,332,100682
12:7:5.539,20792,210.9375,561.5234375,-748.046875,-0.006108652381980153,-0.11606439525762292,-0.05375614096142535,-1675,-495,710,4042,332,100682
12:7:5.550,20793,219.7265625,567.3828125,-745.1171875,0.024434609527920613,-0.1270599695451872,-0.07086036763096978,-1675,-495,710,4042,332,100682
12:7:5.570,20794,206.0546875,573.2421875,-746.09375,0.04642575810304917,-0.15882496193148402,-0.08063421144213802,-1680,-503,715,4042,332,100682
12:7:5.591,20795,205.078125,564.453125,-746.09375,0.06108652381980154,-0.1893682238413848,-0.11728612573401895,-1680,-503,715,4042,332,100682
12:7:5.611,20796,197.265625,550.78125,-742.1875,0.07086036763096978,-0.20525072003453318,-0.1429424657383356,-1680,-503,715,4042,332,100682
12:7:5.621,20797,203.125,550.78125,-747.0703125,0.05986479334340551,-0.238237442897226,-0.1661553447898602,-1680,-503,715,4042,332,100682
12:7:5.641,20798,201.171875,562.5,-747.0703125,0.06230825429619757,-0.2614503219487506,-0.17226399717184035,-1680,-503,715,4042,332,100682
12:7:5.662,20799,181.640625,557.6171875,-766.6015625,0.12095131716320705,-0.2846632010002752,-0.18448130193580062,-1680,-499,708,4042,332,100682
12:7:5.682,20800,173.828125,572.265625,-769.53125,0.19181168479417682,-0.31764992386296803,-0.2150245638457014,-1680,-499,708,4042,332,100682
12:7:5.703,20801,182.6171875,566.40625,-758.7890625,0.2858849314766712,-0.34086280291449256,-0.23579398194443396,-1680,-499,708,4042,332,100682
12:7:5.713,20802,169.921875,527.34375,-753.90625,0.2700024352835228,-0.35796702958403703,-0.2651155133779387,-1680,-499,708,4048,332,100683
12:7:5.733,20803,163.0859375,541.015625,-757.8125,0.20647245051092922,-0.39217548292312593,-0.2663372438543347,-1692,-507,717,4048,332,100683
12:7:5.753,20804,150.390625,546.875,-764.6484375,0.1820378409830086,-0.4068362486398782,-0.2858849314766712,-1692,-507,717,4048,332,100683
12:7:5.774,20805,144.53125,538.0859375,-770.5078125,0.1466076571675237,-0.4300491276914028,-0.3042108886226117,-1692,-507,717,4048,332,100683
12:7:5.784,20806,119.140625,532.2265625,-772.4609375,0.11850785621041499,-0.4715879638888679,-0.3029891581462157,-1692,-507,717,4048,332,100683
12:7:5.804,20807,107.421875,540.0390625,-761.71875,0.15638150097869194,-0.4948008429403924,-0.33108895910332437,-1692,-507,717,4048,332,100683
12:7:5.825,20808,114.2578125,514.6484375,-754.8828125,0.17226399717184035,-0.516791991515521,-0.33964107243809655,-1715,-516,720,4048,332,100683
12:7:5.846,20809,91.796875,506.8359375,-765.625,0.06597344572538566,-0.5473352534254218,-0.37140606482439337,-1715,-516,720,4048,332,100683
12:7:5.867,20810,81.0546875,528.3203125,-775.390625,-0.03298672286269283,-0.5778785153353226,-0.3738495257771854,-1715,-516,720,4048,332,100683
12:7:5.877,20811,60.546875,548.828125,-776.3671875,-0.05375614096142535,-0.6023131248632432,-0.38484510006474965,-1715,-516,720,4048,332,100683
12:7:5.897,20812,54.6875,572.265625,-785.15625,0.006108652381980153,-0.6145304296272034,-0.395840674352314,-1715,-516,720,4048,332,100683
12:7:5.917,20813,29.296875,551.7578125,-769.53125,0.06963863715457375,-0.6462954220135002,-0.40194932673429407,-1740,-525,715,4048,332,100683
12:7:5.938,20814,15.625,518.5546875,-759.765625,0.1429424657383356,-0.6792821448761931,-0.41783182292744253,-1740,-525,715,4048,332,100683
12:7:5.948,20815,6.8359375,518.5546875,-772.4609375,0.08185594191853407,-0.7037167544041137,-0.4312708581677988,-1740,-525,715,4048,332,100683
12:7:5.969,20816,-10.7421875,550.78125,-790.0390625,0.05619960191421742,-0.7379252077432025,-0.42394047530942264,-1740,-525,715,4048,332,100683
12:7:5.989,20817,-44.921875,550.78125,-811.5234375,0.07696902001294993,-0.7806857744170637,-0.37507125625358145,-1768,-529,716,4048,332,100683
12:7:6.10,20818,-20.5078125,587.890625,-790.0390625,0.20036379812894903,-0.7990117315630041,-0.3872885610175418,-1768,-529,716,4048,332,100683
12:7:6.30,20819,-63.4765625,542.96875,-759.765625,0.2956587752878394,-0.8136724972797564,-0.3909537524467298,-1768,-529,716,4048,332,100683
12:7:6.40,20820,-113.28125,489.2578125,-770.5078125,0.31887165433936404,-0.834441915378489,-0.3909537524467298,-1768,-529,716,4048,332,100683
12:7:6.61,20821,-136.71875,469.7265625,-790.0390625,0.2687807048071268,-0.8845328649107264,-0.4153883619746504,-1768,-529,716,4048,332,100683
12:7:6.82,20822,-109.375,484.375,-805.6640625,0.09407324668249437,-0.9492845801597158,-0.45814892864851153,-1803,-540,702,4048,332,100683
12:7:6.102,20823,-123.046875,509.765625,-800.78125,-0.03787364476827696,-0.9651670763528643,-0.476474885794452,-1803,-540,702,4048,332,100683
12:7:6.113,20824,-142.578125,550.78125,-752.9296875,-0.009773843811168246,-0.9749409201640327,-0.4618141200776996,-1803,-540,702,4048,332,100683
12:7:6.133,20825,-206.0546875,511.71875,-748.046875,0.0830776723949301,-1.0128145649323095,-0.4801400772236401,-1803,-540,702,4048,332,100683
12:7:6.154,20826,-243.1640625,486.328125,-765.625,0.058643062867009474,-1.02503186969627,-0.5070181477043528,-1803,-540,702,4048,332,100683
12:7:6.175,20827,-208.0078125,509.765625,-805.6640625,0.07696902001294993,-1.0787880106576953,-0.5326744877086694,-1847,-556,688,4048,332,100683
12:7:6.195,20828,-231.4453125,554.6875,-770.5078125,0.1392772743091475,-1.1227703078079523,-0.5070181477043528,-1847,-556,688,4048,332,100683
12:7:6.206,20829,-277.34375,504.8828125,-762.6953125,0.24923301718479027,-1.1435397259066848,-0.5033529562751646,-1847,-556,688,4048,332,100683
12:7:6.226,20830,-354.4921875,440.4296875,-789.0625,0.23579398194443396,-1.1362093430483087,-0.4972443038931845,-1847,-556,688,4048,332,100683
12:7:6.247,20831,-341.796875,486.328125,-792.96875,0.2748893571891069,-1.1716395268637936,-0.5400048705670456,-1887,-568,672,4048,332,100683
12:7:6.267,20832,-335.9375,538.0859375,-774.4140625,0.35063664672566086,-1.2058479802028823,-0.553443905807402,-1887,-568,672,4048,332,100683
12:7:6.278,20833,-373.046875,476.5625,-782.2265625,0.3530801076784529,-1.2144000935376547,-0.516791991515521,-1887,-568,672,4048,332,100683
12:7:6.299,20834,-409.1796875,466.796875,-793.9453125,0.43493604959698695,-1.1777481792457736,-0.4850269991292242,-1887,-568,672,4048,332,100683
12:7:6.320,20835,-449.21875,444.3359375,-784.1796875,0.4923573819876005,-1.1704177963873974,-0.47280969436526393,-1887,-568,672,4048,332,100683
12:7:6.340,20836,-468.75,415.0390625,-805.6640625,0.5057964172279568,-1.1875220230569419,-0.4801400772236401,-1937,-593,664,4048,332,100683
12:7:6.360,20837,-468.75,386.71875,-778.3203125,0.35796702958403703,-1.1924089449625261,-0.5106833391335408,-1937,-593,664,4048,332,100683
12:7:6.392,20838,-471.6796875,406.25,-756.8359375,0.27733281814189903,-1.196074136391714,-0.5057964172279568,-1937,-593,664,4048,332,100683
12:7:6.413,20839,-521.484375,394.53125,-738.28125,0.2748893571891069,-1.1753047182929817,-0.48869219055841234,-1937,-593,664,4048,332,100683
12:7:6.433,20840,-588.8671875,392.578125,-746.09375,0.3335324200561164,-1.1667526049582093,-0.4838052686528282,-1937,-593,664,4048,332,100683
12:7:6.464,20841,-578.125,356.4453125,-744.140625,0.2907718533822553,-1.1435397259066848,-0.514348530562729,-1971,-618,635,4048,332,100683
12:7:6.486,20842,-544.921875,382.8125,-749.0234375,0.32498030672134415,-1.1838568316277538,-0.5045746867515608,-1971,-618,635,4048,332,100683
12:7:6.506,20843,-584.9609375,365.234375,-716.796875,0.2907718533822553,-1.2070697106792785,-0.475253155318056,-1971,-618,635,4048,332,100683
12:7:6.517,20844,-655.2734375,363.28125,-746.09375,0.3457497248200767,-1.1765264487693778,-0.47280969436526393,-1971,-618,635,4048,332,100683
12:7:6.588,20845,-655.2734375,389.6484375,-729.4921875,0.514348530562729,-1.115439924949576,-0.4605923896013036,-2010,-643,585,4048,332,100683
12:7:6.609,20846,-625.9765625,334.9609375,-696.2890625,0.5045746867515608,-1.1349876125719125,-0.4422664324553632,-2010,-643,585,4048,332,100683
12:7:6.630,20847,-631.8359375,276.3671875,-661.1328125,0.33108895910332437,-1.147204917335873,-0.4324925886441948,-2010,-643,585,4048,332,100683
12:7:6.650,20848,-733.3984375,215.8203125,-735.3515625,0.05986479334340551,-1.154535300194249,-0.41294490102185843,-2010,-643,585,4048,332,100683
12:7:6.660,20849,-779.296875,361.328125,-667.96875,0.2101376419401173,-1.1007791592328238,-0.41905355340383854,-2010,-643,585,4048,332,100683
12:7:6.681,20850,-756.8359375,323.2421875,-647.4609375,0.395840674352314,-1.0751228192285072,-0.44837508483734323,-2046,-670,557,4048,332,100683
12:7:6.701,20851,-733.3984375,288.0859375,-611.328125,0.4276056667386108,-1.0910053154216555,-0.4398229715025711,-2046,-670,557,4048,332,100683
12:7:6.742,20852,-750.0,167.96875,-619.140625,0.1820378409830086,-1.1313224211427244,-0.44959681531373935,-2046,-670,557,4048,332,100683
12:7:6.752,20853,-798.828125,214.84375,-640.625,0.05375614096142535,-1.1777481792457736,-0.4618141200776996,-2046,-670,557,4048,332,100683
12:7:6.773,20854,-808.59375,298.828125,-606.4453125,0.2748893571891069,-1.0861183935160714,-0.4838052686528282,-2046,-670,557,4048,332,100683
12:7:6.793,20855,-787.109375,331.0546875,-580.078125,0.4972443038931845,-1.0543534011297746,-0.5045746867515608,-2067,-690,523,4048,332,100683
12:7:6.814,20856,-766.6015625,268.5546875,-507.8125,0.5693264020005504,-1.0775662801812993,-0.49968776484597655,-2067,-690,523,4048,332,100683
12:7:6.834,20857,-797.8515625,129.8828125,-496.09375,0.40317105721069013,-1.121548577331556,-0.44959681531373935,-2067,-690,523,4048,332,100683
12:7:6.844,20858,-866.2109375,136.71875,-535.15625,0.17959438003021652,-1.2046262497264864,-0.45204027626653137,-2067,-690,523,4048,332,100683
12:7:6.864,20859,-905.2734375,192.3828125,-530.2734375,0.11972958668681102,-1.2205087459196347,-0.5021312257987687,-2067,-690,523,4048,332,100683
12:7:6.885,20860,-903.3203125,246.09375,-457.03125,0.39217548292312593,-1.2034045192500902,-0.6120869686744114,-2089,-714,487,4048,332,100683
12:7:6.905,20861,-869.140625,185.546875,-426.7578125,0.55100044485461,-1.1679743354346053,-0.6072000467688273,-2089,-714,487,4048,332,100683
12:7:6.916,20862,-874.0234375,133.7890625,-426.7578125,0.5351179486614615,-1.1362093430483087,-0.5326744877086694,-2089,-714,487,4048,332,100683
12:7:6.936,20863,-883.7890625,129.8828125,-428.7109375,0.39217548292312593,-1.1557570306706453,-0.43371431912059094,-2089,-714,487,4048,332,100683
12:7:6.957,20864,-943.359375,37.109375,-486.328125,0.16126842288427604,-1.2144000935376547,-0.3787364476827696,-2103,-737,446,4048,332,100683
12:7:6.977,20865,-958.984375,120.1171875,-424.8046875,0.14416419621473164,-1.115439924949576,-0.4300491276914028,-2103,-737,446,4048,332,100683
12:7:6.998,20866,-955.078125,118.1640625,-428.7109375,0.26022859147235455,-1.0458012877950025,-0.4605923896013036,-2103,-737,446,4048,332,100683
12:7:7.8,20867,-929.6875,118.1640625,-415.0390625,0.2871066619530672,-1.0519099401769825,-0.44959681531373935,-2103,-737,446,4048,332,100683
12:7:7.29,20868,-923.828125,152.34375,-357.421875,0.21746802479849348,-1.0433578268422103,-0.40805797911627434,-2103,-737,446,4048,332,100683
12:7:7.49,20869,-947.265625,136.71875,-307.6171875,0.12217304763960309,-1.0482447487477944,-0.35063664672566086,-2116,-755,394,4048,332,100683
12:7:7.70,20870,-1021.484375,49.8046875,-336.9140625,0.06841690667817772,-1.0458012877950025,-0.3017674276698196,-2116,-755,394,4048,332,100683
12:7:7.80,20871,-1025.390625,81.0546875,-321.2890625,0.1905899543177808,-0.9541715020653,-0.27977627909469105,-2116,-755,394,4048,332,100683
12:7:7.100,20872,-994.140625,65.4296875,-333.0078125,0.3090978105281958,-0.911410935391439,-0.2724458962363148,-2116,-755,394,4048,332,100683
12:7:7.121,20873,-973.6328125,76.171875,-311.5234375,0.2651155133779387,-0.9321803534901714,-0.26389378290154264,-2116,-755,394,4048,332,100683
12:7:7.141,20874,-967.7734375,85.9375,-272.4609375,0.2101376419401173,-0.9211847792026072,-0.2577851305195625,-2120,-771,351,4048,332,100683
12:7:7.162,20875,-1002.9296875,78.125,-249.0234375,0.17837264955382048,-0.8894197868163104,-0.21746802479849348,-2120,-771,351,4048,332,100683
12:7:7.172,20876,-1001.953125,110.3515625,-231.4453125,0.32131511529215606,-0.8503244115716375,-0.1942551457469689,-2120,-771,351,4048,332,100683
12:7:7.193,20877,-1000.0,104.4921875,-213.8671875,0.4569271981721155,-0.8112290363269644,-0.16493361431346415,-2120,-771,351,4048,332,100683
12:7:7.214,20878,-1013.671875,51.7578125,-202.1484375,0.4960225734167885,-0.7733553915586875,-0.1478293876439197,-2120,-785,323,4048,332,100683
12:7:7.234,20879,-1033.203125,16.6015625,-213.8671875,0.4068362486398782,-0.7391469382195985,-0.1392772743091475,-2120,-785,323,4048,332,100683
12:7:7.244,20880,-1024.4140625,25.390625,-218.75,0.3103195410045918,-0.6817256058289851,-0.12461650859239513,-2120,-785,323,4048,332,100683
12:7:7.264,20881,-1007.8125,45.8984375,-214.84375,0.3042108886226117,-0.6524040743954804,-0.0989601685880785,-2120,-785,323,4048,332,100683
12:7:7.285,20882,-1002.9296875,50.78125,-196.2890625,0.36651914291880927,-0.6059783162924314,-0.07819075048934597,-2120,-785,323,4048,332,100683
12:7:7.305,20883,-1011.71875,23.4375,-189.453125,0.45814892864851153,-0.5375614096142536,-0.04153883619746505,-2121,-792,277,4048,332,100683
12:7:7.325,20884,-1007.8125,-4.8828125,-184.5703125,0.4691445029360758,-0.4410447019789671,-0.007330382858376184,-2121,-792,277,4048,332,100683
12:7:7.336,20885,-1023.4375,-35.15625,-194.3359375,0.37140606482439337,-0.3262020371977402,-0.0158824961931484,-2121,-792,277,4048,332,100683
12:7:7.356,20886,-1054.6875,-26.3671875,-297.8515625,0.2101376419401173,-0.1356120828799594,-0.006108652381980153,-2121,-792,277,4048,332,100683
12:7:7.378,20887,-1019.53125,-7.8125,-354.4921875,-0.04031710572106901,0.08796459430051422,0.010995574287564277,-2121,-792,277,4048,332,100683
12:7:7.398,20888,-1009.765625,-0.9765625,-271.484375,-0.17470745812463243,0.1466076571675237,0.03543018381548489,-2114,-791,259,4048,332,100683
12:7:7.409,20889,-1007.8125,39.0625,-143.5546875,-0.05497787143782139,0.15393804002589986,0.05619960191421742,-2114,-791,259,4048,332,100683
12:7:7.429,20890,-1017.578125,75.1953125,-75.1953125,0.24923301718479027,0.16126842288427604,0.06963863715457375,-2114,-791,259,4048,332,100683
12:7:7.450,20891,-994.140625,56.640625,-42.96875,0.5351179486614615,0.15638150097869194,0.10018189906447451,-2114,-791,259,4048,332,100683
12:7:7.470,20892,-974.609375,32.2265625,-41.015625,0.5900958200992829,0.10018189906447451,0.09285151620609834,-2115,-794,258,4048,332,100683
12:7:7.481,20893,-958.984375,-24.4140625,-33.203125,0.48991392103480835,0.07086036763096978,0.06475171524898964,-2115,-794,258,4048,332,100683
12:7:7.501,20894,-942.3828125,-54.6875,-49.8046875,0.2516764781375823,0.029321531433504737,0.023212879051524585,-2115,-794,258,4048,332,100683
12:7:7.522,20895,-933.59375,-17.578125,-74.21875,0.007330382858376184,0.020769418098732523,-0.01710422666954443,-2115,-794,258,4048,332,100683
12:7:7.542,20896,-934.5703125,11.71875,-80.078125,-0.10995574287564278,-0.012217304763960306,-0.007330382858376184,-2115,-794,258,4048,332,100683
12:7:7.552,20897,-954.1015625,33.203125,-86.9140625,-0.07086036763096978,-0.029321531433504737,-0.012217304763960306,-2121,-788,263,4048,332,100683
12:7:7.573,20898,-971.6796875,29.296875,-103.515625,-0.003665191429188092,-0.05497787143782139,0.012217304763960306,-2121,-788,263,4048,332,100683
12:7:7.593,20899,-984.375,18.5546875,-106.4453125,0.04642575810304917,-0.0867428638241182,0.009773843811168246,-2121,-788,263,4048,332,100683
12:7:7.615,20900,-1012.6953125,6.8359375,-119.140625,0.04642575810304917,-0.10262536001726659,0.023212879051524585,-2121,-788,263,4048,332,100683
12:7:7.646,20901,-1010.7421875,-0.9765625,-120.1171875,0.04031710572106901,-0.1111774733520388,0.019547687622336492,-2121,-788,263,4048,332,100683
12:7:7.666,20902,-996.09375,4.8828125,-124.0234375,-0.008552113334772215,-0.12217304763960309,0.020769418098732523,-2116,-787,258,4054,333,100689
12:7:7.686,20903,-993.1640625,12.6953125,-128.90625,-0.0317649923862968,-0.11606439525762292,0.02809980095710871,-2116,-787,258,4054,333,100689
12:7:7.707,20904,-994.140625,14.6484375,-119.140625,-0.024434609527920613,-0.11362093430483088,0.02809980095710871,-2116,-787,258,4054,333,100689
12:7:7.717,20905,-994.140625,17.578125,-127.9296875,-0.009773843811168246,-0.09651670763528641,0.020769418098732523,-2116,-787,258,4054,333,100689
12:7:7.738,20906,-982.421875,18.5546875,-130.859375,0.013439035240356337,-0.08918632477691024,0.0158824961931484,-2118,-789,255,4054,333,100689
12:7:7.759,20907,-985.3515625,15.625,-140.625,0.01832595714594046,-0.07086036763096978,0.010995574287564277,-2118,-789,255,4054,333,100689
12:7:7.790,20908,-986.328125,13.671875,-139.6484375,0.008552113334772215,-0.05619960191421742,0.0158824961931484,-2118,-789,255,4054,333,100689
12:7:7.810,20909,-991.2109375,12.6953125,-134.765625,-0.006108652381980153,-0.023212879051524585,-0.003665191429188092,-2118,-789,255,4054,333,100689
12:7:7.831,20910,-994.140625,4.8828125,-133.7890625,-0.01832595714594046,-0.0158824961931484,-0.0012217304763960308,-2118,-789,255,4054,333,100689
12:7:7.851,20911,-993.1640625,5.859375,-127.9296875,-0.01832595714594046,-0.003665191429188092,0.0012217304763960308,-2121,-786,259,4054,333,100689
12:7:7.872,20912,-994.140625,9.765625,-108.3984375,-0.05619960191421742,-0.019547687622336492,0.007330382858376184,-2121,-786,259,4054,333,100689
12:7:7.883,20913,-989.2578125,17.578125,-106.4453125,-0.03298672286269283,-0.006108652381980153,0.004886921905584123,-2121,-786,259,4054,333,100689
12:7:7.903,20914,-981.4453125,22.4609375,-111.328125,-0.023212879051524585,-0.008552113334772215,-0.004886921905584123,-2121,-786,259,4054,333,100689
12:7:7.924,20915,-980.46875,18.5546875,-102.5390625,-0.026878070480712675,-0.01710422666954443,-0.013439035240356337,-2121,-786,259,4054,333,100689
12:7:7.944,20916,-982.421875,10.7421875,-98.6328125,-0.04398229715025711,-0.024434609527920613,-0.003665191429188092,-2117,-788,246,4054,333,100689
12:7:7.955,20917,-986.328125,6.8359375,-109.375,-0.06475171524898964,-0.021991148575128554,0.0012217304763960308,-2117,-788,246,4054,333,100689
12:7:7.975,20918,-985.3515625,9.765625,-112.3046875,-0.07941248096574201,-0.039095375244672985,-0.006108652381980153,-2117,-788,246,4054,333,100689
12:7:7.996,20919,-987.3046875,31.25,-114.2578125,-0.07941248096574201,-0.04031710572106901,-0.007330382858376184,-2117,-788,246,4054,333,100689
12:7:8.16,20920,-992.1875,30.2734375,-113.28125,-0.07452555906015788,-0.05375614096142535,-0.003665191429188092,-2119,-785,255,4054,333,100689
12:7:8.37,20921,-986.328125,25.390625,-111.328125,-0.020769418098732523,-0.05375614096142535,0.0024434609527920616,-2119,-785,255,4054,333,100689
12:7:8.67,20922,-980.46875,12.6953125,-113.28125,-0.014660765716752368,-0.06597344572538566,0.004886921905584123,-2119,-785,255,4054,333,100689
12:7:8.88,20923,-977.5390625,10.7421875,-114.2578125,-0.029321531433504737,-0.07696902001294993,0.004886921905584123,-2119,-785,255,4054,333,100689
12:7:8.109,20924,-987.3046875,17.578125,-113.28125,-0.05742133239061345,-0.06475171524898964,0.0,-2119,-785,255,4054,333,100689
12:7:8.119,20925,-991.2109375,23.4375,-112.3046875,-0.04031710572106901,-0.06963863715457375,0.006108652381980153,-2115,-782,258,4054,333,100689
12:7:8.139,20926,-992.1875,21.484375,-118.1640625,-0.021991148575128554,-0.05742133239061345,0.0,-2115,-782,258,4054,333,100689
12:7:8.159,20927,-991.2109375,29.296875,-119.140625,-0.01710422666954443,-0.07819075048934597,0.0024434609527920616,-2115,-782,258,4054,333,100689
12:7:8.180,20928,-991.2109375,19.53125,-115.234375,-0.021991148575128554,-0.08063421144213802,-0.003665191429188092,-2115,-782,258,4054,333,100689
12:7:8.211,20929,-990.234375,22.4609375,-118.1640625,-0.013439035240356337,-0.07330382858376185,-0.0012217304763960308,-2115,-782,258,4054,333,100689
12:7:8.231,20930,-986.328125,17.578125,-116.2109375,0.004886921905584123,-0.07330382858376185,-0.003665191429188092,-2118,-783,257,4054,333,100689
12:7:8.252,20931,-994.140625,9.765625,-123.046875,0.008552113334772215,-0.05986479334340551,0.0,-2118,-783,257,4054,333,100689
12:7:8.273,20932,-991.2109375,14.6484375,-125.0,-0.021991148575128554,-0.06475171524898964,-0.0012217304763960308,-2118,-783,257,4054,333,100689
12:7:8.283,20933,-984.375,19.53125,-116.2109375,-0.04031710572106901,-0.06597344572538566,0.0,-2118,-783,257,4054,333,100689
12:7:8.304,20934,-984.375,18.5546875,-121.09375,-0.020769418098732523,-0.05009094953223726,0.0012217304763960308,-2121,-786,270,4054,333,100689
12:7:8.325,20935,-987.3046875,18.5546875,-117.1875,0.0,-0.04398229715025711,0.0024434609527920616,-2121,-786,270,4054,333,100689
12:7:8.345,20936,-994.140625,12.6953125,-120.1171875,-0.014660765716752368,-0.029321531433504737,0.007330382858376184,-2121,-786,270,4054,333,100689
12:7:8.365,20937,-994.140625,19.53125,-112.3046875,-0.014660765716752368,-0.03543018381548489,0.004886921905584123,-2121,-786,270,4054,333,100689
12:7:8.375,20938,-989.2578125,15.625,-118.1640625,-0.026878070480712675,-0.023212879051524585,0.006108652381980153,-2121,-786,270,4054,333,100689
12:7:8.396,20939,-992.1875,12.6953125,-109.375,-0.02809980095710871,-0.029321531433504737,0.019547687622336492,-2115,-786,254,4054,333,100689
12:7:8.417,20940,-991.2109375,11.71875,-115.234375,-0.023212879051524585,-0.024434609527920613,0.013439035240356337,-2115,-786,254,4054,333,100689
12:7:8.438,20941,-989.2578125,21.484375,-112.3046875,-0.03543018381548489,-0.0317649923862968,0.003665191429188092,-2115,-786,254,4054,333,100689
12:7:8.448,20942,-980.46875,22.4609375,-105.46875,-0.025656340004316647,-0.04031710572106901,0.007330382858376184,-2115,-786,254,4054,333,100689
12:7:8.489,20943,-980.46875,18.5546875,-112.3046875,-0.013439035240356337,-0.0317649923862968,-0.006108652381980153,-2115,-786,254,4054,333,100689
12:7:8.509,20944,-986.328125,12.6953125,-106.4453125,-0.01832595714594046,-0.02809980095710871,0.004886921905584123,-2112,-779,247,4054,333,100689
12:7:8.530,20945,-980.46875,18.5546875,-112.3046875,-0.05009094953223726,-0.04398229715025711,-0.013439035240356337,-2112,-779,247,4054,333,100689
12:7:8.540,20946,-986.328125,22.4609375,-109.375,-0.03665191429188092,-0.04642575810304917,-0.007330382858376184,-2112,-779,247,4054,333,100689
12:7:8.561,20947,-988.28125,18.5546875,-114.2578125,-0.0158824961931484,-0.04642575810304917,-0.008552113334772215,-2112,-779,247,4054,333,100689
12:7:8.581,20948,-997.0703125,9.765625,-116.2109375,-0.014660765716752368,-0.051312680008633295,-0.0024434609527920616,-2112,-779,247,4054,333,100689
12:7:8.602,20949,-992.1875,25.390625,-114.2578125,-0.020769418098732523,-0.051312680008633295,-0.008552113334772215,-2120,-780,242,4054,333,100689
12:7:8.633,20950,-982.421875,27.34375,-113.28125,-0.03054326190990077,-0.05009094953223726,-0.007330382858376184,-2120,-780,242,4054,333,100689
12:7:8.653,20951,-982.421875,16.6015625,-110.3515625,-0.009773843811168246,-0.052534410485029326,-0.0012217304763960308,-2120,-780,242,4054,333,100689
12:7:8.674,20952,-986.328125,12.6953125,-120.1171875,0.004886921905584123,-0.048869219055841226,-0.004886921905584123,-2120,-780,242,4042,332,100683
12:7:8.694,20953,-989.2578125,19.53125,-119.140625,-0.026878070480712675,-0.05497787143782139,-0.010995574287564277,-2115,-785,265,4042,332,100683
12:7:8.704,20954,-994.140625,27.34375,-116.2109375,-0.05009094953223726,-0.0476474885794452,-0.0024434609527920616,-2115,-785,265,4042,332,100683
12:7:8.725,20955,-992.1875,30.2734375,-118.1640625,-0.03420845333908886,-0.052534410485029326,-0.0024434609527920616,-2115,-785,265,4042,332,100683
12:7:8.746,20956,-990.234375,16.6015625,-112.3046875,-0.0012217304763960308,-0.05009094953223726,-0.006108652381980153,-2115,-785,265,4042,332,100683
12:7:8.767,20957,-980.46875,13.671875,-119.140625,0.0024434609527920616,-0.048869219055841226,0.010995574287564277,-2115,-785,265,4042,332,100683
12:7:8.787,20958,-977.5390625,11.71875,-121.09375,-0.01710422666954443,-0.04642575810304917,-0.003665191429188092,-2107,-781,261,4042,332,100683
12:7:8.797,20959,-982.421875,14.6484375,-117.1875,-0.029321531433504737,-0.03420845333908886,-0.009773843811168246,-2107,-781,261,4042,332,100683
12:7:8.818,20960,-997.0703125,25.390625,-109.375,-0.03054326190990077,-0.04276056667386108,-0.004886921905584123,-2107,-781,261,4042,332,100683
12:7:8.839,20961,-995.1171875,21.484375,-113.28125,-0.019547687622336492,-0.02809980095710871,0.0,-2107,-781,261,4042,332,100683
12:7:8.859,20962,-988.28125,12.6953125,-117.1875,0.003665191429188092,-0.04520402762665313,0.0024434609527920616,-2107,-781,261,4042,332,100683
12:7:8.869,20963,-993.1640625,9.765625,-115.234375,-0.014660765716752368,-0.051312680008633295,-0.0012217304763960308,-2116,-784,260,4042,332,100683
12:7:8.911,20964,-986.328125,13.671875,-118.1640625,-0.009773843811168246,-0.03665191429188092,-0.007330382858376184,-2116,-784,260,4042,332,100683
12:7:8.932,20965,-985.3515625,16.6015625,-107.421875,-0.0317649923862968,-0.04520402762665313,-0.003665191429188092,-2116,-784,260,4042,332,100683
12:7:8.942,20966,-985.3515625,12.6953125,-108.3984375,-0.01710422666954443,-0.04520402762665313,-0.0158824961931484,-2116,-784,260,4042,332,100683
12:7:8.963,20967,-989.2578125,13.671875,-118.1640625,-0.023212879051524585,-0.0476474885794452,0.0012217304763960308,-2116,-782,256,4042,332,100683
12:7:8.983,20968,-981.4453125,22.4609375,-110.3515625,-0.025656340004316647,-0.04520402762665313,0.0,-2116,-782,256,4042,332,100683
12:7:9.4,20969,-986.328125,18.5546875,-115.234375,-0.009773843811168246,-0.04153883619746505,-0.007330382858376184,-2116,-782,256,4042,332,100683
12:7:9.14,20970,-988.28125,15.625,-113.28125,-0.009773843811168246,-0.03054326190990077,-0.0012217304763960308,-2116,-782,256,4042,332,100683
12:7:9.34,20971,-994.140625,17.578125,-107.421875,-0.026878070480712675,-0.04642575810304917,-0.008552113334772215,-2116,-782,256,4042,332,100683
12:7:9.55,20972,-988.28125,14.6484375,-108.3984375,-0.024434609527920613,-0.05375614096142535,0.007330382858376184,-2117,-788,260,4042,332,100683
12:7:9.106,20973,-992.1875,7.8125,-117.1875,-0.0158824961931484,-0.04398229715025711,0.0158824961931484,-2117,-788,260,4042,332,100683
12:7:9.127,20974,-986.328125,6.8359375,-121.09375,-0.019547687622336492,-0.04398229715025711,-0.008552113334772215,-2117,-788,260,4042,332,100683
12:7:9.147,20975,-989.2578125,14.6484375,-114.2578125,-0.02809980095710871,-0.04398229715025711,0.0024434609527920616,-2117,-788,260,4042,332,100683
12:7:9.168,20976,-994.140625,19.53125,-113.28125,-0.04276056667386108,-0.03665191429188092,-0.003665191429188092,-2117,-788,260,4042,332,100683
12:7:9.188,20977,-995.1171875,14.6484375,-124.0234375,-0.03787364476827696,-0.0317649923862968,0.020769418098732523,-2113,-789,260,4042,332,100683
12:7:9.199,20978,-993.1640625,23.4375,-118.1640625,-0.021991148575128554,-0.04031710572106901,0.0024434609527920616,-2113,-789,260,4042,332,100683
12:7:9.220,20979,-993.1640625,19.53125,-122.0703125,-0.012217304763960306,-0.03665191429188092,0.014660765716752368,-2113,-789,260,4042,332,100683
12:7:9.240,20980,-997.0703125,21.484375,-116.2109375,0.0158824961931484,-0.025656340004316647,0.03543018381548489,-2113,-789,260,4042,332,100683
12:7:9.261,20981,-996.09375,25.390625,-96.6796875,-0.020769418098732523,-0.048869219055841226,0.024434609527920613,-2111,-785,266,4042,332,100683
12:7:9.271,20982,-987.3046875,19.53125,-102.5390625,0.0012217304763960308,-0.04153883619746505,0.013439035240356337,-2111,-785,266,4042,332,100683
12:7:9.292,20983,-980.46875,7.8125,-107.421875,-0.012217304763960306,-0.03665191429188092,0.0024434609527920616,-2111,-785,266,4042,332,100683
12:7:9.312,20984,-986.328125,8.7890625,-120.1171875,-0.03054326190990077,-0.025656340004316647,-0.0012217304763960308,-2111,-785,266,4042,332,100683
12:7:9.333,20985,-988.28125,-0.0,-120.1171875,-0.025656340004316647,-0.019547687622336492,-0.0012217304763960308,-2111,-785,266,4042,332,100683
12:7:9.343,20986,-990.234375,-7.8125,-134.765625,-0.012217304763960306,-0.019547687622336492,-0.004886921905584123,-2118,-788,253,4042,332,100683
12:7:9.363,20987,-988.28125,-6.8359375,-135.7421875,-0.05619960191421742,0.003665191429188092,-0.008552113334772215,-2118,-788,253,4042,332,100683
12:7:9.384,20988,-1005.859375,-34.1796875,-147.4609375,-0.14172073526193957,0.0317649923862968,-0.004886921905584123,-2118,-788,253,4042,332,100683
12:7:9.404,20989,-1019.53125,-47.8515625,-194.3359375,-0.14172073526193957,0.0989601685880785,0.012217304763960306,-2118,-788,253,4042,332,100683
12:7:9.425,20990,-1037.109375,-79.1015625,-231.4453125,-0.16493361431346415,0.1954768762233649,0.020769418098732523,-2118,-788,253,4042,332,100683
12:7:9.434,20991,-1045.8984375,-85.9375,-236.328125,-0.2101376419401173,0.22602013813326569,0.0317649923862968,-2115,-783,265,4042,332,100683
12:7:9.475,20992,-1041.9921875,-86.9140625,-215.8203125,-0.3897320219703338,0.2553416695667704,0.05009094953223726,-2115,-783,265,4042,332,100683
12:7:9.496,20993,-1044.921875,-50.78125,-213.8671875,-0.40317105721069013,0.31764992386296803,0.08552113334772216,-2115,-783,265,4042,332,100683
12:7:9.506,20994,-1039.0625,-16.6015625,-233.3984375,-0.3078760800517997,0.42638393626221477,0.14049900478554353,-2115,-783,265,4042,332,100683
12:7:9.527,20995,-1032.2265625,8.7890625,-249.0234375,-0.2675589743307307,0.47403142484165994,0.1954768762233649,-2111,-784,264,4042,332,100683
12:7:9.547,20996,-1029.296875,98.6328125,-283.203125,-0.0830776723949301,0.55100044485461,0.2687807048071268,-2111,-784,264,4042,332,100683
12:7:9.567,20997,-1002.9296875,174.8046875,-298.828125,0.1478293876439197,0.6096435077216195,0.34941491624926485,-2111,-784,264,4042,332,100683
12:7:9.588,20998,-980.46875,211.9140625,-289.0625,0.42638393626221477,0.6255260039147678,0.4300491276914028,-2111,-784,264,4042,332,100683
12:7:9.598,20999,-979.4921875,238.28125,-303.7109375,0.7073819458333017,0.6206390820091836,0.5277875658030853,-2111,-784,264,4042,332,100683
12:7:9.618,21000,-970.703125,249.0234375,-279.296875,0.8674286382411819,0.5998696639104512,0.6157521601035995,-2116,-776,292,4042,332,100683
12:7:9.639,21001,-982.421875,260.7421875,-246.09375,0.9382890058721516,0.5876523591464908,0.7037167544041137,-2116,-776,292,4042,332,100683
12:7:9.659,21002,-1010.7421875,288.0859375,-260.7421875,0.9407324668249436,0.5778785153353226,0.8698720991939739,-2116,-776,292,4048,332,100688
12:7:9.679,21003,-1052.734375,254.8828125,-297.8515625,0.9663888068292604,0.5351179486614615,1.038470904936626,-2116,-776,292,4048,332,100688
12:7:9.689,21004,-940.4296875,268.5546875,-298.828125,0.8527678725244295,0.6462954220135002,1.2571606602115155,-2116,-776,292,4048,332,100688
12:7:9.710,21005,-936.5234375,248.046875,-300.78125,0.7648032782239153,0.6633996486830448,1.3964379345206632,-2114,-748,310,4048,332,100688
12:7:9.751,21006,-942.3828125,292.96875,-278.3203125,0.6621779182066487,0.6365215782023321,1.584584427885652,-2114,-748,310,4048,332,100688
12:7:9.761,21007,-958.0078125,279.296875,-304.6875,0.555887366760194,0.6548475353482726,1.7470745812463238,-2114,-748,310,4048,332,100688
12:7:9.781,21008,-929.6875,329.1015625,-336.9140625,0.5864306286700948,0.7171557896444701,1.8949039688902436,-2114,-748,310,4048,332,100688
12:7:9.802,21009,-986.328125,248.046875,-381.8359375,0.35185837720205687,0.8466592201424493,1.9987510593839062,-2121,-698,328,4048,332,100688
12:7:9.823,21010,-874.0234375,335.9375,-334.9609375,0.31887165433936404,0.9272934315845873,2.2125538927532116,-2121,-698,328,4048,332,100688
12:7:9.833,21011,-879.8828125,403.3203125,-328.125,0.2712241657599188,1.0494664792241903,2.2992967565773297,-2121,-698,328,4048,332,100688
12:7:9.854,21012,-858.3984375,429.6875,-370.1171875,0.2211332162276816,1.0152580258851016,2.3652702023027152,-2121,-698,328,4048,332,100688
12:7:9.946,21013,-793.9453125,465.8203125,-404.296875,0.15393804002589986,1.112996463996784,2.3298400184872303,-2121,-698,328,4048,332,100688
12:7:9.966,21014,-765.625,469.7265625,-371.09375,0.07819075048934597,1.071457627799319,2.3261748270580425,-2105,-615,378,4048,332,100688
12:7:9.987,21015,-730.46875,510.7421875,-375.9765625,0.0830776723949301,1.0421360963658144,2.2846359908605773,-2105,-615,378,4048,332,100688
12:7:10.7,21016,-687.5,539.0625,-386.71875,0.03665191429188092,0.9883799554043888,2.1966713965600633,-2105,-615,378,4048,332,100688
12:7:10.17,21017,-681.640625,549.8046875,-426.7578125,0.0476474885794452,0.8576547944300136,2.101376419401173,-2105,-615,378,4048,332,100688
12:7:10.38,21018,-648.4375,591.796875,-413.0859375,0.05742133239061345,0.7037167544041137,2.08060700130244,-2105,-615,378,4048,332,100688
12:7:10.59,21019,-593.75,592.7734375,-414.0625,0.06597344572538566,0.6047565858160352,1.9413297269932928,-2079,-527,422,4048,332,100688
12:7:10.89,21020,-573.2421875,626.953125,-427.734375,0.10262536001726659,0.5241223743738972,1.8949039688902436,-2079,-527,422,4048,332,100688
12:7:10.110,21021,-541.9921875,672.8515625,-456.0546875,0.10262536001726659,0.42638393626221477,1.8081611050661255,-2079,-527,422,4048,332,100688
12:7:10.131,21022,-504.8828125,685.546875,-489.2578125,0.12095131716320705,0.31520646291017596,1.7751743822034327,-2079,-527,422,4048,332,100688
12:7:10.152,21023,-489.2578125,717.7734375,-500.0,0.19303341527057283,0.1466076571675237,1.7373007374351557,-2020,-455,444,4048,332,100688
12:7:10.173,21024,-452.1484375,769.53125,-525.390625,0.25656340004316647,0.052534410485029326,1.7153095888600272,-2020,-455,444,4048,332,100688
12:7:10.183,21025,-432.6171875,807.6171875,-526.3671875,0.3652974124424132,-0.0317649923862968,1.7336355460059678,-2020,-455,444,4048,332,100688
12:7:10.203,21026,-430.6640625,823.2421875,-526.3671875,0.39950586578150205,-0.08796459430051422,1.749518042199116,-2020,-455,444,4048,332,100688
12:7:10.224,21027,-403.3203125,858.3984375,-509.765625,0.4813618077000361,-0.12461650859239513,1.7715091907742448,-2020,-455,444,4048,332,100688
12:7:10.244,21028,-402.34375,870.1171875,-523.4375,0.5070181477043528,-0.19669860669976097,1.789835147920185,-1981,-402,460,4048,332,100688
12:7:10.255,21029,-381.8359375,839.84375,-548.828125,0.5338962181850655,-0.2296853295624538,1.7715091907742448,-1981,-402,460,4048,332,100688
12:7:10.276,21030,-365.234375,845.703125,-548.828125,0.5864306286700948,-0.2431243648028101,1.7385224679115518,-1981,-402,460,4048,332,100688
12:7:10.296,21031,-349.609375,856.4453125,-549.8046875,0.6304129258203519,-0.2309070600388498,1.7226399717184033,-1981,-402,460,4048,332,100688
12:7:10.317,21032,-341.796875,884.765625,-553.7109375,0.6792821448761931,-0.19669860669976097,1.6798794050445423,-1981,-402,460,4048,332,100688
12:7:10.327,21033,-358.3984375,908.203125,-526.3671875,0.7684684696531033,-0.238237442897226,1.6884315183793146,-1940,-357,461,4048,332,100688
12:7:10.368,21034,-355.46875,873.046875,-544.921875,0.7110471372624899,-0.2663372438543347,1.6371188383706814,-1940,-357,461,4048,332,100688
12:7:10.389,21035,-332.03125,794.921875,-594.7265625,0.6560692658246685,-0.36163222101322506,1.5858061583620482,-1940,-357,461,4048,332,100688
12:7:10.410,21036,-333.984375,789.0625,-607.421875,0.7440338601251827,-0.36041049053682905,1.5271630954950386,-1940,-357,461,4048,332,100688
12:7:10.420,21037,-349.609375,795.8984375,-606.4453125,0.8625417163355976,-0.3628539514896212,1.4844025288211775,-1940,-357,461,4048,332,100688
12:7:10.440,21038,-337.890625,828.125,-589.84375,0.9834930334988048,-0.31642819338657197,1.4245377354777717,-1895,-333,476,4048,332,100688
12:7:10.461,21039,-351.5625,771.484375,-600.5859375,0.8271115325201129,-0.30543261909900765,1.4172073526193958,-1895,-333,476,4048,332,100688
12:7:10.482,21040,-280.2734375,670.8984375,-657.2265625,0.6194173515327875,-0.3445279943436807,1.385442360233099,-1895,-333,476,4048,332,100688
12:7:10.513,21041,-276.3671875,671.875,-684.5703125,0.7232644420264501,-0.3274237676741363,1.3096950706965451,-1895,-333,476,4048,332,100688
12:7:10.533,21042,-274.4140625,755.859375,-638.671875,0.8564330639536176,-0.2919935838586513,1.315803723078525,-1848,-320,496,4048,332,100688
12:7:10.554,21043,-262.6953125,790.0390625,-614.2578125,0.9468411192069238,-0.2235766771804736,1.3243558364132975,-1848,-320,496,4048,332,100688
12:7:10.574,21044,-237.3046875,727.5390625,-614.2578125,0.8930849782454985,-0.2150245638457014,1.3353514107008617,-1848,-320,496,4048,332,100688
12:7:10.584,21045,-207.03125,719.7265625,-642.578125,0.993266877309973,-0.2296853295624538,1.3280210278424853,-1848,-320,496,4048,332,100688
12:7:10.604,21046,-227.5390625,652.34375,-662.109375,0.8295549934729048,-0.2956587752878394,1.3109168011729413,-1848,-320,496,4048,332,100688
12:7:10.625,21047,-236.328125,667.96875,-664.0625,0.6438519610607082,-0.16371188383706814,1.354899098323198,-1814,-312,528,4048,332,100688
12:7:10.645,21048,-189.453125,709.9609375,-624.0234375,0.3640756819660172,-0.29688050576423547,1.4489723450056926,-1814,-312,528,4048,332,100688
12:7:10.655,21049,-113.28125,564.453125,-574.21875,0.238237442897226,-0.4532620067429274,1.4538592669112766,-1814,-312,528,4048,332,100688
12:7:10.676,21050,-85.9375,465.8203125,-606.4453125,0.36041049053682905,-0.6866125277345693,1.230282589730803,-1814,-312,528,4048,332,100688
12:7:10.696,21051,-96.6796875,347.65625,-718.75,0.05009094953223726,-0.6059783162924314,1.111774733520388,-1814,-312,528,4048,332,100688
12:7:10.717,21052,-73.2421875,313.4765625,-818.359375,-0.34330626386728463,-0.4227187448330266,0.984714763975201,-1764,-311,539,4042,333,100686
12:7:10.737,21053,-103.515625,406.25,-857.421875,-0.55710909723659,-0.33108895910332437,0.874759021099558,-1764,-311,539,4042,333,100686
12:7:10.747,21054,-117.1875,511.71875,-813.4765625,-0.55100044485461,-0.23945917337362205,0.7232644420264501,-1764,-311,539,4042,333,100686
12:7:10.768,21055,-151.3671875,475.5859375,-880.859375,-0.3420845333908886,-0.16493361431346415,0.5106833391335408,-1764,-311,539,4042,333,100686
12:7:10.788,21056,-124.0234375,294.921875,-874.0234375,-0.2895501229058593,-0.1502728485967118,0.3481931857728688,-1741,-297,533,4042,333,100686
12:7:10.809,21057,-154.296875,246.09375,-830.078125,-0.04153883619746505,-0.0952949771588904,0.14905111812031577,-1741,-297,533,4042,333,100686
12:7:10.829,21058,-205.078125,254.8828125,-794.921875,0.0158824961931484,-0.05619960191421742,-0.012217304763960306,-1741,-297,533,4042,333,100686
12:7:10.840,21059,-218.75,284.1796875,-784.1796875,0.08063421144213802,0.0158824961931484,-0.11728612573401895,-1741,-297,533,4042,333,100686
12:7:10.860,21060,-207.03125,315.4296875,-787.109375,0.19181168479417682,0.07208209810736582,-0.2211332162276816,-1741,-297,533,4042,333,100686
12:7:10.881,21061,-203.125,349.609375,-768.5546875,0.2419026343264141,0.1270599695451872,-0.2919935838586513,-1728,-288,527,4042,333,100686
12:7:10.902,21062,-175.78125,377.9296875,-764.6484375,0.1429424657383356,0.22846359908605776,-0.3652974124424132,-1728,-288,527,4042,333,100686
12:7:10.912,21063,-166.015625,383.7890625,-739.2578125,0.05619960191421742,0.22479840765686968,-0.475253155318056,-1728,-288,527,4042,333,100686
12:7:10.933,21064,-163.0859375,418.9453125,-729.4921875,-0.04398229715025711,0.2431243648028101,-0.6365215782023321,-1728,-288,527,4042,333,100686
12:7:10.953,21065,-166.015625,434.5703125,-754.8828125,-0.1111774733520388,0.2028072590817411,-0.8772024820523501,-1728,-288,527,4042,333,100686
12:7:10.974,21066,-184.5703125,437.5,-713.8671875,-0.1075122819228507,0.22846359908605776,-1.0629055144645467,-1735,-289,528,4042,333,100686
12:7:10.984,21067,-206.0546875,396.484375,-708.0078125,-0.24556782575560218,0.3652974124424132,-1.1985175973445061,-1735,-289,528,4042,333,100686
12:7:11.4,21068,-201.171875,400.390625,-702.1484375,-0.3384193419617005,0.4056145181634822,-1.3182471840313172,-1735,-289,528,4042,333,100686
12:7:11.25,21069,-224.609375,443.359375,-706.0546875,-0.40317105721069013,0.44959681531373935,-1.4318681183361481,-1735,-289,528,4042,333,100686
12:7:11.45,21070,-222.65625,484.375,-675.78125,-0.4422664324553632,0.48747046008201633,-1.475850415486405,-1765,-298,535,4042,333,100686
12:7:11.65,21071,-259.765625,518.5546875,-625.9765625,-0.5644394800949663,0.5229006438975012,-1.5186109821602662,-1765,-298,535,4042,333,100686
12:7:11.75,21072,-342.7734375,520.5078125,-596.6796875,-0.6621779182066487,0.39706240482871,-1.6762142136153542,-1765,-298,535,4042,333,100686
12:7:11.95,21073,-324.21875,673.828125,-618.1640625,-0.594982742004867,0.5131268000863329,-1.7165313193364233,-1765,-298,535,4042,333,100686
12:7:11.117,21074,-307.6171875,802.734375,-640.625,-0.6120869686744114,0.38606683054114566,-1.6395622993234733,-1765,-298,535,4042,333,100686
12:7:11.137,21075,-213.8671875,868.1640625,-657.2265625,-0.6829473363053812,0.5033529562751646,-1.633453646941493,-1804,-312,524,4042,333,100686
12:7:11.157,21076,-208.984375,926.7578125,-638.671875,-0.9016370915802707,0.5986479334340551,-1.6053538459843844,-1804,-312,524,4042,333,100686
12:7:11.168,21077,-185.546875,1085.9375,-617.1875,-1.0067059125503293,0.6658431096358368,-1.5210544431130584,-1804,-312,524,4042,333,100686
12:7:11.229,21078,-80.078125,1211.9140625,-651.3671875,-1.0054841820739333,0.7574728953655392,-1.44042023167092,-1804,-312,524,4042,333,100686
12:7:11.239,21079,-31.25,1214.84375,-654.296875,-0.9065240134858548,0.5888740896228868,-1.2840387306922283,-1804,-312,524,4042,333,100686
12:7:11.259,21080,-20.5078125,1179.6875,-633.7890625,-0.7574728953655392,0.4569271981721155,-1.0787880106576953,-1838,-321,508,4042,333,100686
12:7:11.280,21081,-15.625,1171.875,-625.0,-0.6157521601035995,0.3872885610175418,-0.8258898020437169,-1838,-321,508,4042,333,100686
12:7:11.300,21082,-30.2734375,1047.8515625,-651.3671875,-0.5119050696099369,0.3090978105281958,-0.6328563867731439,-1838,-321,508,4042,333,100686
12:7:11.321,21083,-78.125,950.1953125,-625.0,-0.3384193419617005,0.2101376419401173,-0.516791991515521,-1838,-321,508,4042,333,100686
12:7:11.331,21084,-103.515625,888.671875,-619.140625,-0.2467895562319982,0.2296853295624538,-0.42394047530942264,-1864,-332,500,4042,333,100686
12:7:11.351,21085,-122.0703125,845.703125,-636.71875,-0.197920337176157,0.2101376419401173,-0.33108895910332437,-1864,-332,500,4042,333,100686
12:7:11.372,21086,-137.6953125,821.2890625,-621.09375,-0.17715091907742447,0.1869247628885927,-0.2663372438543347,-1864,-332,500,4042,333,100686
12:7:11.392,21087,-158.203125,804.6875,-613.28125,-0.2028072590817411,0.2150245638457014,-0.2223549467040776,-1864,-332,500,4042,333,100686
12:7:11.402,21088,-158.203125,791.9921875,-629.8828125,-0.1392772743091475,0.1893682238413848,-0.17837264955382048,-1864,-332,500,4042,333,100686
12:7:11.422,21089,-163.0859375,775.390625,-638.671875,-0.09773843811168245,0.14049900478554353,-0.13194689145077132,-1882,-335,500,4042,333,100686
12:7:11.443,21090,-179.6875,777.34375,-636.71875,-0.0671951762017817,0.12461650859239513,-0.1111774733520388,-1882,-335,500,4042,333,100686
12:7:11.464,21091,-181.640625,778.3203125,-632.8125,-0.04031710572106901,0.10629055144645469,-0.09773843811168245,-1882,-335,500,4042,333,100686
12:7:11.484,21092,-180.6640625,750.9765625,-650.390625,-0.03543018381548489,0.10995574287564278,-0.08429940287132612,-1882,-335,500,4042,333,100686
12:7:11.494,21093,-189.453125,750.9765625,-652.34375,-0.019547687622336492,0.11606439525762292,-0.06230825429619757,-1882,-335,500,4042,333,100686
12:7:11.515,21094,-187.5,728.515625,-654.296875,-0.029321531433504737,0.16004669240788005,-0.05375614096142535,-1886,-338,497,4042,333,100686
12:7:11.536,21095,-188.4765625,736.328125,-649.4140625,-0.025656340004316647,0.17959438003021652,-0.05375614096142535,-1886,-338,497,4042,333,100686
12:7:11.557,21096,-190.4296875,721.6796875,-656.25,-0.03665191429188092,0.16982053621904827,-0.051312680008633295,-1886,-338,497,4042,333,100686
12:7:11.567,21097,-188.4765625,711.9140625,-650.390625,-0.04276056667386108,0.20402898955813717,-0.058643062867009474,-1886,-338,497,4042,333,100686
12:7:11.587,21098,-189.453125,712.890625,-648.4375,-0.03787364476827696,0.20891591146372127,-0.0635299847725936,-1881,-334,494,4042,333,100686
12:7:11.608,21099,-194.3359375,705.078125,-649.4140625,-0.07574728953655392,0.2528982086139784,-0.06475171524898964,-1881,-334,494,4042,333,100686
12:7:11.628,21100,-191.40625,698.2421875,-663.0859375,-0.11239920382843484,0.29932396671702755,-0.09407324668249437,-1881,-334,494,4042,333,100686
12:7:11.649,21101,-185.546875,682.6171875,-667.96875,-0.14416419621473164,0.31642819338657197,-0.14416419621473164,-1881,-334,494,4042,333,100686
12:7:11.659,21102,-184.5703125,667.96875,-664.0625,-0.16249015336067207,0.3457497248200767,-0.19181168479417682,-1881,-334,494,4042,332,100683
12:7:11.680,21103,-181.640625,655.2734375,-658.203125,-0.1869247628885927,0.38362336958835364,-0.2553416695667704,-1885,-334,498,4042,332,100683
12:7:11.700,21104,-174.8046875,648.4375,-637.6953125,-0.22602013813326569,0.4300491276914028,-0.33597588100890846,-1885,-334,498,4042,332,100683
12:7:11.721,21105,-174.8046875,622.0703125,-621.09375,-0.2858849314766712,0.4948008429403924,-0.4557054676957195,-1885,-334,498,4042,332,100683
12:7:11.731,21106,-165.0390625,594.7265625,-627.9296875,-0.3530801076784529,0.5656612105713622,-0.6108652381980153,-1885,-334,498,4042,332,100683
12:7:11.751,21107,-161.1328125,626.953125,-614.2578125,-0.47280969436526393,0.6023131248632432,-0.7073819458333017,-1885,-334,498,4042,332,100683
12:7:11.772,21108,-187.5,717.7734375,-582.03125,-0.5913175505756788,0.6194173515327875,-0.7660250087003113,-1881,-341,504,4042,332,100683
12:7:11.792,21109,-198.2421875,800.78125,-574.21875,-0.670730031541421,0.6658431096358368,-0.8637634468119937,-1881,-341,504,4042,332,100683
12:7:11.813,21110,-195.3125,854.4921875,-586.9140625,-0.6597344572538566,0.7183775201208661,-0.9297368925373793,-1881,-341,504,4042,332,100683
12:7:11.843,21111,-162.109375,929.6875,-587.890625,-0.6120869686744114,0.7318165553612224,-0.9236282401553992,-1881,-341,504,4042,332,100683
12:7:11.914,21112,-143.5546875,984.375,-576.171875,-0.5229006438975012,0.7000515629749257,-0.8625417163355976,-1884,-343,508,4042,332,100683
12:7:11.935,21113,-112.3046875,1012.6953125,-584.9609375,-0.5681046715241543,0.6597344572538566,-0.7648032782239153,-1884,-343,508,4042,332,100683
12:7:11.987,21114,-95.703125,1027.34375,-604.4921875,-0.5888740896228868,0.6511823439190844,-0.6585127267774605,-1884,-343,508,4042,332,100683
12:7:12.7,21115,-93.75,1051.7578125,-617.1875,-0.43371431912059094,0.5888740896228868,-0.5546656362837981,-1884,-343,508,4042,332,100683
12:7:12.28,21116,-108.3984375,1088.8671875,-607.421875,-0.1893682238413848,0.46670104198328377,-0.3262020371977402,-1884,-343,508,4042,332,100683
12:7:12.48,21117,-125.0,1061.5234375,-560.546875,-0.1392772743091475,0.3017674276698196,-0.1478293876439197,-1901,-349,498,4042,332,100683
12:7:12.58,21118,-142.578125,1049.8046875,-542.96875,-0.06597344572538566,0.23701571242082997,0.024434609527920613,-1901,-349,498,4042,332,100683
12:7:12.79,21119,-105.46875,957.03125,-638.671875,-0.2516764781375823,0.33475415053251245,0.12461650859239513,-1901,-349,498,4042,332,100683
12:7:12.99,21120,-122.0703125,952.1484375,-638.671875,-0.08918632477691024,0.17592918860102844,0.2748893571891069,-1901,-349,498,4042,332,100683
12:7:12.121,21121,-157.2265625,1000.9765625,-584.9609375,-0.03420845333908886,0.10995574287564278,0.4447098934081552,-1901,-349,498,4042,332,100683
12:7:12.131,21122,-153.3203125,928.7109375,-536.1328125,-0.19914206765255302,0.2516764781375823,0.6023131248632432,-1896,-350,513,4042,332,100683
12:7:12.151,21123,-137.6953125,852.5390625,-566.40625,0.04642575810304917,0.19669860669976097,0.5803219762881145,-1896,-350,513,4042,332,100683
12:7:12.172,21124,-192.3828125,911.1328125,-558.59375,0.22724186860966175,0.05009094953223726,0.7281513639320344,-1896,-350,513,4042,332,100683
12:7:12.193,21125,-121.09375,926.7578125,-456.0546875,0.12583823906879116,-0.07696902001294993,0.8820894039579342,-1896,-350,513,4042,332,100683
12:7:12.213,21126,-139.6484375,931.640625,-536.1328125,0.01710422666954443,-0.06597344572538566,0.9248499706317953,-1896,-350,513,4042,332,100683
12:7:12.223,21127,-90.8203125,885.7421875,-592.7734375,-0.5485569839018178,-0.04520402762665313,0.955393232541696,-1875,-341,513,4042,332,100683
12:7:12.244,21128,-124.0234375,807.6171875,-584.9609375,-0.44959681531373935,-0.18814649336498873,1.0005972601683493,-1875,-341,513,4042,332,100683
12:7:12.264,21129,-143.5546875,866.2109375,-589.84375,-0.039095375244672985,-0.2651155133779387,1.1594222220998334,-1875,-341,513,4042,332,100683
12:7:12.285,21130,-160.15625,836.9140625,-572.265625,-0.0952949771588904,-0.25656340004316647,1.2424998944947634,-1875,-341,513,4042,332,100683
12:7:12.306,21131,-157.2265625,777.34375,-543.9453125,0.039095375244672985,-0.0830776723949301,1.1582004916234372,-1841,-325,516,4042,332,100683
12:7:12.316,21132,-153.3203125,641.6015625,-495.1171875,0.5485569839018178,-0.04276056667386108,0.9602801544472802,-1841,-325,516,4042,332,100683
12:7:12.336,21133,-136.71875,506.8359375,-542.96875,0.7098254067860938,-0.0635299847725936,0.7464773210779747,-1841,-325,516,4042,332,100683
12:7:12.357,21134,-125.9765625,404.296875,-554.6875,0.6621779182066487,-0.04031710572106901,0.5229006438975012,-1841,-325,516,4042,332,100683
12:7:12.378,21135,-130.859375,346.6796875,-570.3125,0.4288273972150068,0.007330382858376184,0.3274237676741363,-1841,-325,516,4042,332,100683
12:7:12.388,21136,-139.6484375,293.9453125,-589.84375,0.20036379812894903,0.06108652381980154,0.19181168479417682,-1814,-307,512,4042,332,100683
12:7:12.479,21137,-152.34375,278.3203125,-578.125,0.0476474885794452,0.023212879051524585,0.03420845333908886,-1814,-307,512,4042,332,100683
12:7:12.499,21138,-146.484375,255.859375,-593.75,0.0317649923862968,0.04642575810304917,-0.12583823906879116,-1814,-307,512,4042,332,100683
12:7:12.519,21139,-130.859375,268.5546875,-613.28125,-0.10140362954087055,0.025656340004316647,-0.31520646291017596,-1814,-307,512,4042,332,100683
12:7:12.539,21140,-113.28125,412.109375,-593.75,-0.24556782575560218,0.007330382858376184,-0.4703662334124718,-1814,-307,512,4042,332,100683
12:7:12.560,21141,-105.46875,564.453125,-565.4296875,-0.2113593724165133,-0.007330382858376184,-0.5937610115284709,-1799,-311,522,4042,332,100683
12:7:12.570,21142,-104.4921875,650.390625,-574.21875,-0.0989601685880785,-0.08063421144213802,-0.7379252077432025,-1799,-311,522,4042,332,100683
12:7:12.590,21143,-123.046875,662.109375,-544.921875,-0.05497787143782139,-0.2541199390903744,-0.952949771588904,-1799,-311,522,4042,332,100683
12:7:12.610,21144,-141.6015625,694.3359375,-603.515625,-0.16859880574265224,-0.2895501229058593,-1.0641272449409427,-1799,-311,522,4042,332,100683
12:7:12.630,21145,-120.1171875,741.2109375,-620.1171875,-0.238237442897226,-0.2516764781375823,-1.0910053154216555,-1818,-317,527,4042,332,100683
12:7:12.651,21146,-153.3203125,833.984375,-597.65625,-0.26389378290154264,-0.24801128670839426,-1.0079276430267254,-1818,-317,527,4042,332,100683
12:7:12.661,21147,-171.875,933.59375,-577.1484375,-0.3274237676741363,-0.18814649336498873,-0.910189204915043,-1818,-317,527,4042,332,100683
12:7:12.681,21148,-127.9296875,942.3828125,-564.453125,-0.36896260387160124,-0.28099800957108706,-0.8075638448977764,-1818,-317,527,4042,332,100683
12:7:12.702,21149,-105.46875,888.671875,-558.59375,-0.16126842288427604,-0.33964107243809655,-0.7794640439406676,-1818,-317,527,4042,332,100683
12:7:12.723,21150,-159.1796875,817.3828125,-545.8984375,0.01710422666954443,-0.37018433434799736,-0.7098254067860938,-1859,-330,514,4042,332,100683
12:7:12.733,21151,-200.1953125,809.5703125,-553.7109375,0.2150245638457014,-0.4398229715025711,-0.668286570588629,-1859,-330,514,4042,332,100683
12:7:12.753,21152,-169.921875,891.6015625,-613.28125,0.45081854579013536,-0.4569271981721155,-0.5852088981936987,-1859,-330,514,4048,333,100681
12:7:12.774,21153,-134.765625,875.0,-574.21875,0.49968776484597655,-0.4715879638888679,-0.4300491276914028,-1859,-330,514,4048,333,100681
12:7:12.794,21154,-192.3828125,887.6953125,-528.3203125,0.41416663149825445,-0.49968776484597655,-0.21258110289290938,-1859,-330,514,4048,333,100681
12:7:12.815,21155,-156.25,972.65625,-592.7734375,0.41416663149825445,-0.5265658353266892,-0.15149457907310784,-1893,-345,516,4048,333,100681
12:7:12.825,21156,-102.5390625,1035.15625,-637.6953125,0.5057964172279568,-0.49846603436958054,-0.15271630954950383,-1893,-345,516,4048,333,100681
12:7:12.846,21157,-111.328125,1005.859375,-624.0234375,0.5265658353266892,-0.4960225734167885,-0.08185594191853407,-1893,-345,516,4048,333,100681
12:7:12.866,21158,-140.625,971.6796875,-580.078125,0.4703662334124718,-0.5277875658030853,0.06963863715457375,-1893,-345,516,4048,333,100681
12:7:12.887,21159,-138.671875,978.515625,-613.28125,0.4324925886441948,-0.4862487296056202,0.07574728953655392,-1900,-363,508,4048,333,100681
12:7:12.897,21160,-167.96875,944.3359375,-656.25,0.3029891581462157,-0.5766567848589266,0.10018189906447451,-1900,-363,508,4048,333,100681
12:7:12.918,21161,-201.171875,891.6015625,-646.484375,0.17226399717184035,-0.6218608124855797,0.13316862192716736,-1900,-363,508,4048,333,100681
12:7:12.938,21162,-199.21875,827.1484375,-650.390625,-0.07452555906015788,-0.5619960191421741,0.12461650859239513,-1900,-363,508,4048,333,100681
12:7:12.959,21163,-217.7734375,780.2734375,-691.40625,-0.1356120828799594,-0.4434881629317592,0.0867428638241182,-1900,-363,508,4048,333,100681
12:7:12.979,21164,-239.2578125,798.828125,-680.6640625,-0.1038470904936626,-0.40072759625789806,0.08429940287132612,-1914,-374,513,4048,333,100681
12:7:12.989,21165,-250.9765625,784.1796875,-671.875,-0.07330382858376185,-0.33719761148530447,0.08185594191853407,-1914,-374,513,4048,333,100681
12:7:13.10,21166,-241.2109375,750.9765625,-703.125,-0.010995574287564277,-0.2663372438543347,0.07941248096574201,-1914,-374,513,4048,333,100681
12:7:13.30,21167,-246.09375,754.8828125,-665.0390625,0.026878070480712675,-0.2186897552748895,0.12461650859239513,-1914,-374,513,4048,333,100681
12:7:13.51,21168,-262.6953125,752.9296875,-646.484375,0.039095375244672985,-0.1905899543177808,0.10629055144645469,-1914,-374,513,4048,333,100681
12:7:13.62,21169,-259.765625,743.1640625,-630.859375,0.07696902001294993,-0.2162462943220974,0.10018189906447451,-1918,-362,505,4048,333,100681
12:7:13.83,21170,-253.90625,730.46875,-627.9296875,0.12461650859239513,-0.20158552860534507,0.08185594191853407,-1918,-362,505,4048,333,100681
12:7:13.103,21171,-250.0,739.2578125,-617.1875,0.14049900478554353,-0.17470745812463243,0.07696902001294993,-1918,-362,505,4048,333,100681
12:7:13.123,21172,-252.9296875,733.3984375,-616.2109375,0.09773843811168245,-0.16249015336067207,0.0830776723949301,-1918,-362,505,4048,333,100681
12:7:13.133,21173,-250.9765625,740.234375,-601.5625,0.1075122819228507,-0.15393804002589986,0.07330382858376185,-1921,-367,509,4048,333,100681
12:7:13.154,21174,-242.1875,728.515625,-589.84375,0.10262536001726659,-0.1478293876439197,0.03787364476827696,-1921,-367,509,4048,333,100681
12:7:13.175,21175,-253.90625,741.2109375,-601.5625,0.07452555906015788,-0.1356120828799594,0.05009094953223726,-1921,-367,509,4048,333,100681
12:7:13.196,21176,-237.3046875,738.28125,-619.140625,0.051312680008633295,-0.1343903524035634,0.07208209810736582,-1921,-367,509,4048,333,100681
12:7:13.216,21177,-243.1640625,744.140625,-616.2109375,0.026878070480712675,-0.1356120828799594,0.09651670763528641,-1921,-367,509,4048,333,100681
12:7:13.227,21178,-250.0,758.7890625,-613.28125,0.020769418098732523,-0.14538592669112765,0.14172073526193957,-1914,-365,493,4048,333,100681
12:7:13.247,21179,-232.421875,767.578125,-634.765625,-0.007330382858376184,-0.1343903524035634,0.18570303241219668,-1914,-365,493,4048,333,100681
12:7:13.268,21180,-228.515625,791.9921875,-645.5078125,-0.008552113334772215,-0.14538592669112765,0.2504547476611863,-1914,-365,493,4048,333,100681
12:7:13.288,21181,-219.7265625,832.03125,-645.5078125,-0.023212879051524585,-0.14905111812031577,0.3457497248200767,-1914,-365,493,4048,333,100681
12:7:13.299,21182,-205.078125,862.3046875,-665.0390625,-0.06963863715457375,-0.10873401239924674,0.4312708581677988,-1914,-365,493,4048,333,100681
12:7:13.319,21183,-190.4296875,915.0390625,-703.125,-0.06963863715457375,-0.039095375244672985,0.5400048705670456,-1914,-361,500,4048,333,100681
12:7:13.339,21184,-169.921875,941.40625,-698.2421875,-0.051312680008633295,0.03787364476827696,0.678060414399797,-1914,-361,500,4048,333,100681
12:7:13.360,21185,-175.78125,975.5859375,-703.125,-0.04520402762665313,0.12583823906879116,0.8564330639536176,-1914,-361,500,4048,333,100681
12:7:13.380,21186,-161.1328125,1010.7421875,-711.9140625,-0.029321531433504737,0.2211332162276816,0.9639453458764682,-1914,-361,500,4048,333,100681
12:7:13.391,21187,-145.5078125,997.0703125,-722.65625,-0.010995574287564277,0.3139847324337799,1.0580185925589627,-1904,-351,496,4048,333,100681
12:7:13.411,21188,-149.4140625,990.234375,-705.078125,0.0635299847725936,0.38484510006474965,1.1386528040011008,-1904,-351,496,4048,333,100681
12:7:13.432,21189,-139.6484375,994.140625,-691.40625,0.1551597705022959,0.4276056667386108,1.2046262497264864,-1904,-351,496,4048,333,100681
12:7:13.452,21190,-137.6953125,982.421875,-674.8046875,0.238237442897226,0.4715879638888679,1.2412781640183672,-1904,-351,496,4048,333,100681
12:7:13.463,21191,-137.6953125,968.75,-631.8359375,0.20891591146372127,0.4557054676957195,1.312138531649337,-1904,-351,496,4048,333,100681
12:7:13.484,21192,-110.3515625,848.6328125,-659.1796875,-0.02809980095710871,0.4654793115068877,1.3267992973660896,-1865,-327,515,4048,333,100681
12:7:13.504,21193,-89.84375,829.1015625,-660.15625,0.1429424657383356,0.475253155318056,1.3048081487909609,-1865,-327,515,4048,333,100681
12:7:13.525,21194,-83.0078125,819.3359375,-617.1875,0.24556782575560218,0.42394047530942264,1.3304644887952775,-1865,-327,515,4048,333,100681
12:7:13.546,21195,-68.359375,807.6171875,-568.359375,0.3811799086355616,0.36896260387160124,1.3341296802244655,-1865,-327,515,4048,333,100681
12:7:13.556,21196,-54.6875,777.34375,-558.59375,0.5387831400906496,0.2822197400474831,1.315803723078525,-1865,-327,515,4048,333,100681
12:7:13.577,21197,-31.25,738.28125,-542.96875,0.6963863715457376,0.19669860669976097,1.269377964975476,-1803,-307,532,4048,333,100681
12:7:13.598,21198,-20.5078125,694.3359375,-533.203125,0.7257079029792424,0.11972958668681102,1.238834703065575,-1803,-307,532,4048,333,100681
12:7:13.669,21199,-6.8359375,647.4609375,-532.2265625,0.631634656296748,0.0476474885794452,1.2082914411556744,-1803,-307,532,4048,333,100681
12:7:13.690,21200,22.4609375,618.1640625,-554.6875,0.48747046008201633,-0.010995574287564277,1.1533135697178531,-1803,-307,532,4048,333,100681
12:7:13.710,21201,46.875,631.8359375,-572.265625,0.39950586578150205,-0.07086036763096978,1.0604620535117548,-1759,-301,542,4048,333,100681
12:7:13.720,21202,57.6171875,653.3203125,-610.3515625,0.37018433434799736,-0.04520402762665313,1.0653489754173389,-1759,-301,542,4042,332,100680
12:7:13.741,21203,78.125,654.296875,-644.53125,0.2162462943220974,-0.03543018381548489,1.0629055144645467,-1759,-301,542,4042,332,100680
12:7:13.762,21204,117.1875,666.015625,-678.7109375,0.08063421144213802,0.0012217304763960308,1.0971139678036357,-1759,-301,542,4042,332,100680
12:7:13.784,21205,144.53125,728.515625,-730.46875,0.05375614096142535,-0.0317649923862968,1.145983186859477,-1759,-301,542,4042,332,100680
12:7:13.794,21206,151.3671875,762.6953125,-734.375,0.1148426647812269,-0.0867428638241182,1.2180652849668427,-1715,-302,564,4042,332,100680
12:7:13.814,21207,140.625,753.90625,-714.84375,0.1038470904936626,-0.15638150097869194,1.2363912421127832,-1715,-302,564,4042,332,100680
12:7:13.835,21208,128.90625,743.1640625,-728.515625,0.10140362954087055,-0.13805554383275148,1.2437216249711593,-1715,-302,564,4042,332,100680
12:7:13.855,21209,150.390625,699.21875,-712.890625,0.06963863715457375,-0.1343903524035634,1.2363912421127832,-1715,-302,564,4042,332,100680
12:7:13.865,21210,176.7578125,611.328125,-676.7578125,0.06230825429619757,-0.17959438003021652,1.1691960659110014,-1715,-302,564,4042,332,100680
12:7:13.886,21211,181.640625,568.359375,-639.6484375,-0.05742133239061345,-0.2235766771804736,1.1007791592328238,-1680,-300,557,4042,332,100680
12:7:13.906,21212,177.734375,500.0,-620.1171875,-0.14172073526193957,-0.2724458962363148,0.912632665867835,-1680,-300,557,4042,332,100680
12:7:13.926,21213,180.6640625,411.1328125,-694.3359375,-0.2663372438543347,-0.2186897552748895,0.6658431096358368,-1680,-300,557,4042,332,100680
12:7:13.947,21214,185.546875,314.453125,-728.515625,-0.37140606482439337,-0.1661553447898602,0.39461894387591795,-1680,-300,557,4042,332,100680
12:7:13.957,21215,166.015625,233.3984375,-723.6328125,-0.41905355340383854,-0.16004669240788005,0.26267205242514663,-1680,-300,557,4042,332,100680
12:7:13.978,21216,172.8515625,152.34375,-708.0078125,-0.4288273972150068,-0.05375614096142535,0.08552113334772216,-1637,-295,559,4042,332,100680
12:7:13.998,21217,148.4375,132.8125,-657.2265625,-0.3530801076784529,-0.1551597705022959,-0.07208209810736582,-1637,-295,559,4042,332,100680
12:7:14.19,21218,109.375,155.2734375,-704.1015625,-0.1661553447898602,-0.1710422666954443,-0.2528982086139784,-1637,-295,559,4042,332,100680
12:7:14.29,21219,108.3984375,255.859375,-747.0703125,-0.004886921905584123,-0.1307251609743753,-0.35552356863124496,-1637,-295,559,4042,332,100680
12:7:14.50,21220,125.0,393.5546875,-704.1015625,0.07086036763096978,-0.06841690667817772,-0.3799581781591656,-1637,-283,541,4042,332,100680
12:7:14.70,21221,134.765625,472.65625,-695.3125,0.05375614096142535,-0.007330382858376184,-0.40317105721069013,-1637,-283,541,4042,332,100680
12:7:14.91,21222,163.0859375,499.0234375,-693.359375,-0.02809980095710871,0.003665191429188092,-0.5009094953223726,-1637,-283,541,4042,332,100680
12:7:14.112,21223,148.4375,512.6953125,-684.5703125,-0.0830776723949301,-0.009773843811168246,-0.7000515629749257,-1637,-283,541,4042,332,100680
12:7:14.122,21224,129.8828125,486.328125,-673.828125,-0.2883283924294633,-0.03665191429188092,-0.9651670763528643,-1637,-283,541,4042,332,100680
12:7:14.142,21225,113.28125,515.625,-655.2734375,-0.40927970959267035,-0.09651670763528641,-1.1264354992371404,-1647,-284,541,4042,332,100680
12:7:14.163,21226,99.609375,574.21875,-617.1875,-0.5644394800949663,-0.07330382858376185,-1.2009610582972983,-1647,-284,541,4042,332,100680
12:7:14.184,21227,83.0078125,611.328125,-608.3984375,-0.6817256058289851,-0.04398229715025711,-1.2803735392630404,-1647,-284,541,4042,332,100680
12:7:14.194,21228,81.0546875,612.3046875,-597.65625,-0.5766567848589266,-0.05009094953223726,-1.3781119773747228,-1647,-284,541,4042,332,100680
12:7:14.215,21229,47.8515625,650.390625,-616.2109375,-0.36896260387160124,-0.009773843811168246,-1.4159856221429996,-1647,-284,541,4042,332,100680
12:7:14.236,21230,44.921875,675.78125,-611.328125,-0.2956587752878394,-0.014660765716752368,-1.4013248564262473,-1681,-283,527,4042,332,100680
12:7:14.257,21231,58.59375,725.5859375,-582.03125,-0.2614503219487506,-0.014660765716752368,-1.3622294811815745,-1681,-283,527,4042,332,100680
12:7:14.267,21232,-22.4609375,781.25,-534.1796875,-0.2162462943220974,-0.03543018381548489,-1.2999212268853766,-1681,-283,527,4042,332,100680
12:7:14.288,21233,-44.921875,823.2421875,-555.6640625,-0.20647245051092922,-0.10873401239924674,-1.3194689145077132,-1681,-283,527,4042,332,100680
12:7:14.308,21234,34.1796875,940.4296875,-633.7890625,-0.023212879051524585,-0.10629055144645469,-1.3597860202287821,-1732,-286,524,4042,332,100680
12:7:14.328,21235,95.703125,998.046875,-641.6015625,-0.08796459430051422,-0.1661553447898602,-1.2131783630612585,-1732,-286,524,4042,332,100680
12:7:14.339,21236,94.7265625,1021.484375,-637.6953125,-0.3262020371977402,-0.16493361431346415,-0.9773843811168247,-1732,-286,524,4042,332,100680
12:7:14.359,21237,99.609375,1151.3671875,-695.3125,-0.43371431912059094,-0.12950343049797927,-0.8833111344343304,-1732,-286,524,4042,332,100680
12:7:14.380,21238,101.5625,1223.6328125,-736.328125,-0.5253441048502933,-0.14538592669112765,-0.7147123286916779,-1732,-286,524,4042,332,100680
12:7:14.400,21239,97.65625,1199.21875,-707.03125,-0.5448917924726296,-0.16249015336067207,-0.4960225734167885,-1782,-293,515,4042,332,100680
12:7:14.421,21240,35.15625,1168.9453125,-686.5234375,-0.41416663149825445,-0.21746802479849348,-0.3787364476827696,-1782,-293,515,4042,332,100680
12:7:14.431,21241,28.3203125,1122.0703125,-691.40625,-0.3286454981505323,-0.16004669240788005,-0.30543261909900765,-1782,-293,515,4042,332,100680
12:7:14.452,21242,26.3671875,1019.53125,-710.9375,-0.3457497248200767,-0.12950343049797927,-0.16859880574265224,-1782,-293,515,4042,332,100680
12:7:14.472,21243,11.71875,942.3828125,-684.5703125,-0.2700024352835228,0.004886921905584123,-0.07086036763096978,-1782,-293,515,4042,332,100680
12:7:14.503,21244,8.7890625,878.90625,-673.828125,-0.2846632010002752,0.058643062867009474,0.0024434609527920616,-1798,-298,508,4042,332,100680
12:7:14.523,21245,-8.7890625,853.515625,-644.53125,-0.17959438003021652,0.07696902001294993,0.0476474885794452,-1798,-298,508,4042,332,100680
12:7:14.544,21246,-21.484375,821.2890625,-620.1171875,-0.026878070480712675,0.06475171524898964,0.05986479334340551,-1798,-298,508,4042,332,100680
12:7:14.564,21247,-15.625,779.296875,-604.4921875,0.03298672286269283,0.05742133239061345,0.07696902001294993,-1798,-298,508,4042,332,100680
12:7:14.585,21248,-22.4609375,761.71875,-602.5390625,0.10506882097005865,0.03665191429188092,0.05986479334340551,-1801,-294,492,4042,332,100680
12:7:14.595,21249,-19.53125,770.5078125,-610.3515625,0.1343903524035634,0.052534410485029326,0.052534410485029326,-1801,-294,492,4042,332,100680
12:7:14.616,21250,-15.625,772.4609375,-587.890625,0.11362093430483088,0.05009094953223726,0.05497787143782139,-1801,-294,492,4042,332,100680
12:7:14.656,21251,-12.6953125,769.53125,-591.796875,0.07330382858376185,0.058643062867009474,-0.008552113334772215,-1801,-294,492,4042,332,100680
12:7:14.677,21252,-16.6015625,786.1328125,-583.984375,0.08063421144213802,0.03787364476827696,-0.009773843811168246,-1801,-294,492,4048,333,100681
12:7:14.687,21253,2.9296875,777.34375,-587.890625,0.10506882097005865,0.04520402762665313,-0.0158824961931484,-1803,-298,483,4048,333,100681
12:7:14.707,21254,-0.0,751.953125,-591.796875,0.11239920382843484,0.026878070480712675,-0.01832595714594046,-1803,-298,483,4048,333,100681
12:7:14.728,21255,-4.8828125,745.1171875,-586.9140625,0.0671951762017817,0.01710422666954443,-0.03054326190990077,-1803,-298,483,4048,333,100681
12:7:14.748,21256,-12.6953125,764.6484375,-577.1484375,0.06230825429619757,-0.004886921905584123,-0.024434609527920613,-1803,-298,483,4048,333,100681
12:7:14.758,21257,-10.7421875,748.046875,-594.7265625,0.04642575810304917,0.004886921905584123,-0.0671951762017817,-1803,-298,483,4048,333,100681
12:7:14.778,21258,-21.484375,748.046875,-600.5859375,0.0635299847725936,-0.021991148575128554,-0.06963863715457375,-1803,-296,507,4048,333,100681
12:7:14.799,21259,-27.34375,752.9296875,-590.8203125,0.03054326190990077,-0.029321531433504737,-0.05619960191421742,-1803,-296,507,4048,333,100681
12:7:14.820,21260,-32.2265625,734.375,-616.2109375,-0.04153883619746505,-0.04153883619746505,-0.05497787143782139,-1803,-296,507,4048,333,100681
12:7:14.840,21261,-39.0625,736.328125,-630.859375,0.013439035240356337,-0.07086036763096978,-0.0989601685880785,-1803,-296,507,4048,333,100681
12:7:14.922,21262,-47.8515625,727.5390625,-632.8125,0.013439035240356337,-0.05986479334340551,-0.08796459430051422,-1808,-293,513,4048,333,100681
12:7:14.942,21263,-47.8515625,713.8671875,-639.6484375,0.014660765716752368,-0.02809980095710871,-0.1233947781159991,-1808,-293,513,4048,333,100681
12:7:15.4,21264,-54.6875,708.984375,-666.015625,0.0671951762017817,-0.03298672286269283,-0.15638150097869194,-1808,-293,513,4048,333,100681
12:7:15.14,21265,-72.265625,675.78125,-652.34375,0.10262536001726659,-0.04153883619746505,-0.16371188383706814,-1808,-293,513,4048,333,100681
12:7:15.34,21266,-81.0546875,655.2734375,-643.5546875,0.17592918860102844,-0.012217304763960306,-0.23701571242082997,-1808,-293,513,4048,333,100681
12:7:15.54,21267,-73.2421875,618.1640625,-641.6015625,0.2076941809873252,-0.048869219055841226,-0.3103195410045918,-1810,-298,519,4048,333,100681
12:7:15.75,21268,-78.125,627.9296875,-673.828125,0.3103195410045918,-0.03054326190990077,-0.40927970959267035,-1810,-298,519,4048,333,100681
12:7:15.95,21269,-84.9609375,656.25,-665.0390625,0.41783182292744253,-0.021991148575128554,-0.45081854579013536,-1810,-298,519,4048,333,100681
12:7:15.105,21270,-94.7265625,667.96875,-665.0390625,0.4276056667386108,-0.07941248096574201,-0.5351179486614615,-1810,-298,519,4048,333,100681
12:7:15.126,21271,-106.4453125,713.8671875,-656.25,0.4948008429403924,-0.0867428638241182,-0.6157521601035995,-1810,-298,519,4048,333,100681
12:7:15.146,21272,-83.984375,755.859375,-640.625,0.5424483315198376,-0.09162978572970232,-0.6365215782023321,-1816,-313,523,4048,333,100681
12:7:15.167,21273,-105.46875,731.4453125,-648.4375,0.5387831400906496,-0.15149457907310784,-0.6792821448761931,-1816,-313,523,4048,333,100681
12:7:15.178,21274,-106.4453125,744.140625,-633.7890625,0.5998696639104512,-0.2150245638457014,-0.7305948248848264,-1816,-313,523,4048,333,100681
12:7:15.198,21275,-88.8671875,780.2734375,-657.2265625,0.6255260039147678,-0.2858849314766712,-0.8002334620394002,-1816,-313,523,4048,333,100681
12:7:15.219,21276,-82.03125,755.859375,-663.0859375,0.5632177496185702,-0.36896260387160124,-0.8136724972797564,-1839,-329,538,4048,333,100681
12:7:15.239,21277,-74.21875,769.53125,-677.734375,0.55710909723659,-0.3775147172063735,-0.8112290363269644,-1839,-329,538,4048,333,100681
12:7:15.250,21278,-72.265625,814.453125,-667.96875,0.6597344572538566,-0.4398229715025711,-0.7354817467904105,-1839,-329,538,4048,333,100681
12:7:15.270,21279,-75.1953125,808.59375,-697.265625,0.6951646410693415,-0.46303585055409563,-0.7293730944084303,-1839,-329,538,4048,333,100681
12:7:15.291,21280,-69.3359375,826.171875,-735.3515625,0.7318165553612224,-0.5021312257987687,-0.7037167544041137,-1839,-329,538,4048,333,100681
12:7:15.311,21281,-77.1484375,845.703125,-729.4921875,0.7684684696531033,-0.5045746867515608,-0.6572909963010646,-1869,-358,564,4048,333,100681
12:7:15.331,21282,-109.375,872.0703125,-734.375,0.8234463410909247,-0.4703662334124718,-0.5473352534254218,-1869,-358,564,4048,333,100681
12:7:15.342,21283,-112.3046875,873.046875,-758.7890625,0.7757988525114795,-0.41416663149825445,-0.4447098934081552,-1869,-358,564,4048,333,100681
12:7:15.362,21284,-136.71875,828.125,-776.3671875,0.7281513639320344,-0.40317105721069013,-0.3445279943436807,-1869,-358,564,4048,333,100681
12:7:15.383,21285,-163.0859375,821.2890625,-767.578125,0.751364242983559,-0.35430183815484895,-0.2724458962363148,-1869,-358,564,4048,333,100681
12:7:15.404,21286,-184.5703125,811.5234375,-771.484375,0.7232644420264501,-0.37018433434799736,-0.1661553447898602,-1894,-387,557,4048,333,100681
12:7:15.425,21287,-219.7265625,806.640625,-766.6015625,0.7318165553612224,-0.36651914291880927,-0.09407324668249437,-1894,-387,557,4048,333,100681
12:7:15.435,21288,-205.078125,682.6171875,-788.0859375,0.5888740896228868,-0.3445279943436807,0.05009094953223726,-1894,-387,557,4048,333,100681
12:7:15.455,21289,-225.5859375,664.0625,-772.4609375,0.6218608124855797,-0.2858849314766712,0.10629055144645469,-1894,-387,557,4048,333,100681
12:7:15.476,21290,-248.046875,704.1015625,-736.328125,0.6988298324985297,-0.3445279943436807,0.2907718533822553,-1915,-412,573,4048,333,100681
12:7:15.496,21291,-259.765625,723.6328125,-679.6875,0.6902777191637574,-0.4569271981721155,0.3811799086355616,-1915,-412,573,4048,333,100681
12:7:15.506,21292,-261.71875,599.609375,-708.984375,0.4654793115068877,-0.5106833391335408,0.49968776484597655,-1915,-412,573,4048,333,100681
12:7:15.620,21293,-280.2734375,567.3828125,-756.8359375,0.5644394800949663,-0.4471533543609472,0.558330827712986,-1915,-412,573,4048,333,100681
12:7:15.640,21294,-350.5859375,656.25,-737.3046875,0.5888740896228868,-0.43371431912059094,0.8258898020437169,-1915,-412,573,4048,333,100681
12:7:15.661,21295,-364.2578125,746.09375,-677.734375,0.4618141200776996,-0.40317105721069013,1.069014166846527,-1916,-421,577,4048,333,100681
12:7:15.671,21296,-365.234375,783.203125,-682.6171875,0.33475415053251245,-0.3530801076784529,1.232726050683595,-1916,-421,577,4048,333,100681
12:7:15.692,21297,-319.3359375,679.6875,-719.7265625,0.2138028333693054,-0.32253684576855207,1.4355333097653364,-1916,-421,577,4048,333,100681
12:7:15.712,21298,-263.671875,511.71875,-728.515625,0.23701571242082997,-0.4593706591249076,1.472185224057217,-1916,-421,577,4048,333,100681
12:7:15.733,21299,-293.9453125,392.578125,-754.8828125,0.37629298672997746,-0.5314527572322734,1.3891075516622868,-1916,-421,577,4048,333,100681
12:7:15.744,21300,-353.515625,320.3125,-799.8046875,0.33597588100890846,-0.5106833391335408,1.3744467859455347,-1899,-407,580,4048,333,100681
12:7:15.764,21301,-354.4921875,176.7578125,-886.71875,-0.06475171524898964,-0.46303585055409563,1.0995574287564276,-1899,-407,580,4048,333,100681
12:7:15.785,21302,-379.8828125,-5.859375,-867.1875,-0.5766567848589266,-0.4703662334124718,0.7086036763096979,-1899,-407,580,4042,333,100685
12:7:15.806,21303,-382.8125,-34.1796875,-863.28125,-0.753807703936351,-0.3787364476827696,0.4043927876870862,-1899,-407,580,4042,333,100685
12:7:15.826,21304,-393.5546875,96.6796875,-936.5234375,-0.63407811724954,-0.23335052099164189,0.18570303241219668,-1899,-407,580,4042,333,100685
12:7:15.836,21305,-403.3203125,189.453125,-910.15625,-0.5742133239061344,-0.16126842288427604,-0.007330382858376184,-1873,-386,580,4042,333,100685
12:7:15.856,21306,-408.203125,206.0546875,-880.859375,-0.38606683054114566,-0.08796459430051422,-0.1734857276482364,-1873,-386,580,4042,333,100685
12:7:15.876,21307,-382.8125,265.625,-854.4921875,-0.12217304763960309,-0.04153883619746505,-0.2748893571891069,-1873,-386,580,4042,333,100685
12:7:15.897,21308,-375.0,340.8203125,-848.6328125,0.021991148575128554,0.019547687622336492,-0.33597588100890846,-1873,-386,580,4042,333,100685
12:7:15.917,21309,-361.328125,353.515625,-760.7421875,-0.14416419621473164,-0.010995574287564277,-0.4056145181634822,-1869,-367,555,4042,333,100685
12:7:15.927,21310,-347.65625,375.0,-791.015625,-0.20525072003453318,0.04642575810304917,-0.5693264020005504,-1869,-367,555,4042,333,100685
12:7:15.947,21311,-341.796875,396.484375,-769.53125,-0.41783182292744253,0.07574728953655392,-0.7024950239277178,-1869,-367,555,4042,333,100685
12:7:15.968,21312,-338.8671875,424.8046875,-714.84375,-0.5363396791378575,0.05742133239061345,-0.8637634468119937,-1869,-367,555,4042,333,100685
12:7:15.988,21313,-336.9140625,388.671875,-760.7421875,-0.519235452468313,0.05619960191421742,-1.038470904936626,-1869,-367,555,4042,333,100685
12:7:15.998,21314,-360.3515625,424.8046875,-778.3203125,-0.6047565858160352,0.1905899543177808,-1.0629055144645467,-1887,-371,554,4042,333,100685
12:7:16.19,21315,-357.421875,535.15625,-747.0703125,-0.7110471372624899,0.3286454981505323,-0.9419541973013398,-1887,-371,554,4042,333,100685
12:7:16.39,21316,-374.0234375,597.65625,-738.28125,-0.6487388829662923,0.42516220578581876,-0.8662069077647858,-1887,-371,554,4042,333,100685
12:7:16.59,21317,-361.328125,705.078125,-736.328125,-0.5119050696099369,0.5326744877086694,-0.6853907972581733,-1887,-371,554,4042,333,100685
12:7:16.80,21318,-337.890625,777.34375,-738.28125,-0.3640756819660172,0.5314527572322734,-0.5778785153353226,-1887,-371,554,4042,333,100685
12:7:16.90,21319,-316.40625,805.6640625,-739.2578125,-0.278554548618295,0.5290092962794813,-0.5204571829447091,-1910,-386,531,4042,333,100685
12:7:16.110,21320,-272.4609375,840.8203125,-727.5390625,-0.2846632010002752,0.5693264020005504,-0.48991392103480835,-1910,-386,531,4042,333,100685
12:7:16.131,21321,-255.859375,832.03125,-679.6875,-0.43860124102617504,0.4288273972150068,-0.41905355340383854,-1910,-386,531,4042,333,100685
12:7:16.151,21322,-205.078125,773.4375,-722.65625,-0.6719517620178169,0.5412266010434416,-0.3799581781591656,-1910,-386,531,4042,333,100685
12:7:16.162,21323,-205.078125,846.6796875,-706.0546875,-0.6096435077216195,0.5448917924726296,-0.32375857624494814,-1918,-392,556,4042,333,100685
12:7:16.182,21324,-189.453125,811.5234375,-692.3828125,-0.6719517620178169,0.37140606482439337,-0.20647245051092922,-1918,-392,556,4042,333,100685
12:7:16.202,21325,-162.109375,784.1796875,-683.59375,-0.5644394800949663,0.35185837720205687,-0.16371188383706814,-1918,-392,556,4042,333,100685
12:7:16.223,21326,-166.9921875,807.6171875,-674.8046875,-0.3066543495754037,0.2431243648028101,-0.1661553447898602,-1918,-392,556,4042,333,100685
12:7:16.243,21327,-176.7578125,704.1015625,-673.828125,-0.2419026343264141,0.1270599695451872,-0.13805554383275148,-1918,-392,556,4042,333,100685
12:7:16.254,21328,-197.265625,682.6171875,-682.6171875,-0.10995574287564278,0.09773843811168245,-0.15149457907310784,-1921,-383,544,4042,333,100685
12:7:16.274,21329,-202.1484375,672.8515625,-679.6875,-0.09773843811168245,0.05497787143782139,-0.12461650859239513,-1921,-383,544,4042,333,100685
12:7:16.295,21330,-224.609375,666.015625,-686.5234375,-0.08796459430051422,0.024434609527920613,-0.12828170002158323,-1921,-383,544,4042,333,100685
12:7:16.315,21331,-230.46875,643.5546875,-703.125,-0.09407324668249437,0.0158824961931484,-0.10873401239924674,-1921,-383,544,4042,333,100685
12:7:16.335,21332,-243.1640625,655.2734375,-705.078125,-0.06230825429619757,0.006108652381980153,-0.07452555906015788,-1921,-383,544,4042,333,100685
12:7:16.345,21333,-246.09375,641.6015625,-731.4453125,-0.004886921905584123,-0.004886921905584123,-0.07086036763096978,-1915,-388,540,4042,333,100685
12:7:16.366,21334,-249.0234375,635.7421875,-726.5625,-0.0012217304763960308,-0.0317649923862968,-0.048869219055841226,-1915,-388,540,4042,333,100685
12:7:16.386,21335,-257.8125,632.8125,-737.3046875,-0.003665191429188092,-0.025656340004316647,-0.05986479334340551,-1915,-388,540,4042,333,100685
12:7:16.407,21336,-261.71875,625.9765625,-739.2578125,-0.01710422666954443,-0.012217304763960306,-0.04276056667386108,-1915,-388,540,4042,333,100685
12:7:16.418,21337,-269.53125,625.9765625,-740.234375,-0.009773843811168246,0.012217304763960306,-0.0476474885794452,-1918,-386,537,4042,333,100685
12:7:16.438,21338,-279.296875,620.1171875,-738.28125,-0.01832595714594046,0.051312680008633295,-0.052534410485029326,-1918,-386,537,4042,333,100685
12:7:16.459,21339,-288.0859375,619.140625,-734.375,0.0024434609527920616,0.0830776723949301,-0.051312680008633295,-1918,-386,537,4042,333,100685
12:7:16.480,21340,-290.0390625,619.140625,-723.6328125,-0.013439035240356337,0.11239920382843484,-0.06230825429619757,-1918,-386,537,4042,333,100685
12:7:16.490,21341,-278.3203125,597.65625,-730.46875,-0.0952949771588904,0.15393804002589986,-0.07574728953655392,-1918,-386,537,4042,333,100685
12:7:16.510,21342,-277.34375,595.703125,-739.2578125,-0.1429424657383356,0.1942551457469689,-0.13194689145077132,-1917,-387,529,4042,333,100685
12:7:16.531,21343,-282.2265625,581.0546875,-727.5390625,-0.17959438003021652,0.20036379812894903,-0.14905111812031577,-1917,-387,529,4042,333,100685
12:7:16.551,21344,-283.203125,565.4296875,-733.3984375,-0.2541199390903744,0.22724186860966175,-0.2101376419401173,-1917,-387,529,4042,333,100685
12:7:16.572,21345,-284.1796875,560.546875,-731.4453125,-0.35674529910764097,0.26389378290154264,-0.2614503219487506,-1917,-387,529,4042,333,100685
12:7:16.820,21346,-281.25,570.3125,-727.5390625,-0.3909537524467298,0.2944370448114434,-0.3066543495754037,-1917,-387,529,4042,333,100685
12:7:16.840,21347,-276.3671875,566.40625,-736.328125,-0.4801400772236401,0.35063664672566086,-0.36896260387160124,-1914,-391,548,4042,333,100685
12:7:16.861,21348,-279.296875,575.1953125,-724.609375,-0.5229006438975012,0.39217548292312593,-0.4557054676957195,-1914,-391,548,4042,333,100685
12:7:16.882,21349,-267.578125,574.21875,-707.03125,-0.5424483315198376,0.42516220578581876,-0.5204571829447091,-1914,-391,548,4042,333,100685
12:7:16.892,21350,-288.0859375,594.7265625,-684.5703125,-0.594982742004867,0.4312708581677988,-0.5876523591464908,-1914,-391,548,4042,333,100685
12:7:16.913,21351,-286.1328125,567.3828125,-669.921875,-0.6951646410693415,0.5009094953223726,-0.6597344572538566,-1917,-386,545,4042,333,100685
12:7:16.934,21352,-295.8984375,544.921875,-650.390625,-0.8026769229921922,0.5302310267558774,-0.8222246106145287,-1917,-386,545,4042,333,100688
12:7:16.954,21353,-289.0625,554.6875,-646.484375,-0.8600982553828056,0.5595525581893821,-0.9407324668249436,-1917,-386,545,4042,333,100688
12:7:16.964,21354,-295.8984375,568.359375,-642.578125,-0.9443976582541318,0.5888740896228868,-1.038470904936626,-1917,-386,545,4042,333,100688
12:7:16.985,21355,-327.1484375,592.7734375,-620.1171875,-1.0836749325632793,0.63407811724954,-1.145983186859477,-1917,-386,545,4042,333,100688
12:7:17.5,21356,-341.796875,617.1875,-604.4921875,-1.2449433554475555,0.6890559886873614,-1.3109168011729413,-1926,-394,539,4042,333,100688
12:7:17.26,21357,-320.3125,667.96875,-611.328125,-1.263269312593496,0.6914994496401534,-1.4440854231001083,-1926,-394,539,4042,333,100688
12:7:17.46,21358,-312.5,689.453125,-608.3984375,-1.2815952697394362,0.6853907972581733,-1.49906329453793,-1926,-394,539,4042,333,100688
12:7:17.56,21359,-338.8671875,723.6328125,-581.0546875,-1.2950343049797925,0.6719517620178169,-1.497841564061534,-1926,-394,539,4042,333,100688
12:7:17.77,21363,-375.9765625,765.625,-528.3203125,-0.910189204915043,0.6120869686744114,-1.583362697409256,-1937,-405,528,4042,333,100688
12:7:17.97,21364,-399.4140625,750.9765625,-505.859375,-0.8784242125287461,0.594982742004867,-1.5796975059800675,-1937,-405,528,4042,333,100688
12:7:17.117,21365,-419.921875,768.5546875,-498.046875,-0.8075638448977764,0.49113565151120436,-1.6065755764607805,-1964,-421,514,4042,333,100688
12:7:17.137,21366,-421.875,778.3203125,-520.5078125,-0.8148942277561525,0.42394047530942264,-1.6077973069371763,-1964,-421,514,4042,333,100688
12:7:17.147,21367,-412.109375,748.046875,-520.5078125,-0.7012732934513217,0.32375857624494814,-1.6322319164650974,-1964,-421,514,4042,333,100688
12:7:17.168,21368,-444.3359375,719.7265625,-495.1171875,-0.5681046715241543,0.2516764781375823,-1.6273449945595129,-1964,-421,514,4042,333,100688
12:7:17.188,21369,-471.6796875,709.9609375,-477.5390625,-0.519235452468313,0.17715091907742447,-1.5601498183577314,-1964,-421,514,4042,333,100688
12:7:17.209,21370,-472.65625,748.046875,-453.125,-0.4838052686528282,0.09285151620609834,-1.5259413650186424,-1988,-447,516,4042,333,100688
12:7:17.219,21371,-477.5390625,762.6953125,-429.6875,-0.4056145181634822,-0.004886921905584123,-1.4966198335851377,-1988,-447,516,4042,333,100688
12:7:17.240,21372,-503.90625,699.21875,-407.2265625,-0.25656340004316647,-0.12950343049797927,-1.473406954533613,-1988,-447,516,4042,333,100688
12:7:17.260,21373,-508.7890625,670.8984375,-353.515625,-0.1233947781159991,-0.16859880574265224,-1.4501940754820886,-1988,-447,516,4042,333,100688
12:7:17.280,21374,-508.7890625,696.2890625,-322.265625,-0.052534410485029326,-0.27733281814189903,-1.387885821185891,-1988,-447,516,4042,333,100688
12:7:17.301,21375,-536.1328125,707.03125,-348.6328125,-0.12828170002158323,-0.39461894387591795,-1.271821425928268,-2023,-489,513,4042,333,100688
12:7:17.311,21376,-570.3125,662.109375,-355.46875,-0.2309070600388498,-0.437379510549779,-1.2266173983016149,-2023,-489,513,4042,333,100688
12:7:17.332,21377,-617.1875,622.0703125,-400.390625,-0.3384193419617005,-0.4850269991292242,-1.1789699097221698,-2023,-489,513,4042,333,100688
12:7:17.353,21378,-614.2578125,564.453125,-460.9375,-0.55100044485461,-0.45081854579013536,-1.1594222220998334,-2023,-489,513,4042,333,100688
12:7:17.373,21379,-668.9453125,548.828125,-515.625,-0.6988298324985297,-0.4813618077000361,-1.152091839241457,-2046,-530,513,4042,333,100688
12:7:17.383,21380,-708.0078125,606.4453125,-480.46875,-0.6890559886873614,-0.4642575810304917,-1.1594222220998334,-2046,-530,513,4042,333,100688
12:7:17.403,21381,-715.8203125,660.15625,-475.5859375,-0.5546656362837981,-0.45814892864851153,-1.1728612573401895,-2046,-530,513,4042,333,100688
12:7:17.424,21382,-743.1640625,664.0625,-495.1171875,-0.42516220578581876,-0.4227187448330266,-1.1972958668681102,-2046,-530,513,4042,333,100688
12:7:17.444,21383,-726.5625,609.375,-486.328125,-0.16493361431346415,-0.4715879638888679,-1.2437216249711593,-2046,-530,513,4042,333,100688
12:7:17.464,21384,-717.7734375,522.4609375,-460.9375,0.039095375244672985,-0.5277875658030853,-1.2974777659325847,-2064,-558,470,4042,333,100688
12:7:17.587,21385,-765.625,487.3046875,-425.78125,0.18081611050661253,-0.5522221753310059,-1.3243558364132975,-2064,-558,470,4042,333,100688
12:7:17.607,21386,-808.59375,483.3984375,-450.1953125,0.35796702958403703,-0.5668829410477583,-1.3267992973660896,-2064,-558,470,4042,333,100688
12:7:17.628,21387,-795.8984375,458.0078125,-426.7578125,0.6133086991508074,-0.6365215782023321,-1.2950343049797925,-2064,-558,470,4042,333,100688
12:7:17.638,21388,-825.1953125,393.5546875,-387.6953125,0.7782423134642715,-0.7086036763096979,-1.2534954687823276,-2064,-558,470,4042,333,100688
12:7:17.659,21389,-863.28125,318.359375,-365.234375,0.7367034772668065,-0.7452555906015788,-1.2424998944947634,-2090,-608,466,4042,333,100688
12:7:17.679,21390,-887.6953125,288.0859375,-378.90625,0.6328563867731439,-0.7611380867947273,-1.2229522068724268,-2090,-608,466,4042,333,100688
12:7:17.700,21391,-877.9296875,293.9453125,-374.0234375,0.6389650391551241,-0.7843509658462519,-1.230282589730803,-2090,-608,466,4042,333,100688
12:7:17.720,21392,-890.625,312.5,-335.9375,0.6560692658246685,-0.839328837284073,-1.2009610582972983,-2090,-608,466,4042,333,100688
12:7:17.731,21393,-916.015625,354.4921875,-350.5859375,0.8772024820523501,-0.839328837284073,-1.0971139678036357,-2090,-608,466,4042,333,100688
12:7:17.751,21394,-932.6171875,337.890625,-357.421875,1.070235897322923,-0.950506310636112,-0.9993755296919531,-2109,-665,439,4042,333,100688
12:7:17.772,21395,-945.3125,294.921875,-305.6640625,1.2070697106792785,-1.0445795573186063,-0.9285151620609834,-2109,-665,439,4042,333,100688
12:7:17.792,21396,-955.078125,163.0859375,-244.140625,1.1679743354346053,-1.0653489754173389,-0.9077457439622509,-2109,-665,439,4042,333,100688
12:7:17.803,21397,-946.2890625,191.40625,-300.78125,0.8527678725244295,-1.0555751316061706,-0.8991936306274787,-2109,-665,439,4042,333,100688
12:7:17.823,21398,-958.984375,247.0703125,-372.0703125,0.6230825429619757,-1.02503186969627,-0.8161159582325487,-2127,-718,405,4042,333,100688
12:7:17.843,21399,-938.4765625,250.9765625,-296.875,0.6414085001079162,-1.0885618544688633,-0.7403686686959947,-2127,-718,405,4042,333,100688
12:7:17.864,21402,-977.5390625,224.609375,-301.7578125,0.5094616086571448,-0.992045146833577,-0.5277875658030853,-2127,-718,405,4042,333,100688
12:7:17.875,21403,-1001.953125,187.5,-283.203125,0.7073819458333017,-0.9871582249279928,-0.4557054676957195,-2128,-755,360,4042,333,100688
12:7:17.895,21404,-1012.6953125,172.8515625,-263.671875,0.8405505677604692,-0.908967474438647,-0.39339721339952194,-2128,-755,360,4042,333,100688
12:7:17.915,21405,-1002.9296875,163.0859375,-244.140625,0.9297368925373793,-0.8625417163355976,-0.33108895910332437,-2128,-755,360,4042,333,100688
12:7:17.935,21406,-988.28125,108.3984375,-163.0859375,0.950506310636112,-0.8210028801381327,-0.2748893571891069,-2128,-755,360,4042,333,100688
12:7:17.956,21407,-974.609375,37.109375,-137.6953125,0.8173376887089446,-0.7599163563183312,-0.22846359908605776,-2128,-755,360,4042,333,100688
12:7:17.966,21408,-969.7265625,34.1796875,-191.40625,0.6059783162924314,-0.6658431096358368,-0.20158552860534507,-2127,-777,310,4042,333,100688
12:7:17.987,21409,-981.4453125,39.0625,-203.125,0.33597588100890846,-0.6169738905799955,-0.16126842288427604,-2127,-777,310,4042,333,100688
12:7:18.8,21410,-978.515625,68.359375,-191.40625,0.1820378409830086,-0.5632177496185702,-0.08552113334772216,-2127,-777,310,4042,333,100688
12:7:18.29,21411,-996.09375,107.421875,-214.84375,0.23701571242082997,-0.4935791124639964,-0.01832595714594046,-2127,-777,310,4042,333,100688
12:7:18.40,21412,-1056.640625,129.8828125,-239.2578125,0.5338962181850655,-0.3677408733952052,0.051312680008633295,-2120,-784,287,4042,333,100688
12:7:18.60,21413,-1091.796875,83.984375,-250.0,0.7318165553612224,-0.24801128670839426,0.12461650859239513,-2120,-784,287,4042,333,100688
12:7:18.80,21414,-1062.5,22.4609375,-300.78125,0.7403686686959947,-0.06475171524898964,0.1661553447898602,-2120,-784,287,4042,333,100688
12:7:18.101,21415,-1020.5078125,-11.71875,-286.1328125,0.4532620067429274,0.05375614096142535,0.13194689145077132,-2120,-784,287,4042,333,100688
12:7:18.121,21416,-1003.90625,2.9296875,-207.03125,0.2150245638457014,0.10506882097005865,0.1111774733520388,-2120,-784,287,4042,333,100688
12:7:18.131,21417,-990.234375,52.734375,-114.2578125,0.24556782575560218,0.1307251609743753,0.10018189906447451,-2121,-785,257,4042,333,100688
12:7:18.152,21418,-999.0234375,83.0078125,-61.5234375,0.5546656362837981,0.11728612573401895,0.09162978572970232,-2121,-785,257,4042,333,100688
12:7:18.172,21419,-996.09375,41.015625,-36.1328125,0.7452555906015788,0.10873401239924674,0.08429940287132612,-2121,-785,257,4042,333,100688
12:7:18.193,21420,-972.65625,29.296875,-22.4609375,0.7195992505972622,0.08918632477691024,0.06475171524898964,-2121,-785,257,4042,333,100688
12:7:18.203,21421,-955.078125,31.25,-21.484375,0.4618141200776996,0.025656340004316647,0.010995574287564277,-2121,-785,257,4042,333,100688
12:7:18.224,21422,-939.453125,16.6015625,-37.109375,0.2516764781375823,-0.019547687622336492,-0.019547687622336492,-2127,-780,274,4042,333,100688
12:7:18.244,21423,-937.5,16.6015625,-49.8046875,0.07819075048934597,-0.05009094953223726,-0.03420845333908886,-2127,-780,274,4042,333,100688
12:7:18.265,21424,-949.21875,26.3671875,-63.4765625,-0.03420845333908886,-0.07330382858376185,-0.03420845333908886,-2127,-780,274,4042,333,100688
12:7:18.285,21425,-954.1015625,51.7578125,-76.171875,-0.06108652381980154,-0.10629055144645469,-0.029321531433504737,-2127,-780,274,4042,333,100688
12:7:18.296,21426,-981.4453125,53.7109375,-95.703125,-0.04031710572106901,-0.13805554383275148,-0.04031710572106901,-2122,-779,266,4042,333,100688
12:7:18.316,21427,-997.0703125,38.0859375,-105.46875,-0.03787364476827696,-0.14416419621473164,-0.029321531433504737,-2122,-779,266,4042,333,100688
12:7:18.336,21428,-997.0703125,56.640625,-117.1875,-0.039095375244672985,-0.14172073526193957,-0.026878070480712675,-2122,-779,266,4042,333,100688
12:7:18.357,21429,-1012.6953125,57.6171875,-119.140625,0.023212879051524585,-0.16249015336067207,0.006108652381980153,-2122,-779,266,4042,333,100688
12:7:18.367,21430,-1012.6953125,60.546875,-110.3515625,0.07941248096574201,-0.16982053621904827,0.01710422666954443,-2122,-779,266,4042,333,100688
12:7:18.387,21431,-1010.7421875,49.8046875,-116.2109375,0.07086036763096978,-0.1478293876439197,0.019547687622336492,-2128,-778,265,4042,333,100688
12:7:18.408,21432,-991.2109375,60.546875,-136.71875,0.09285151620609834,-0.12461650859239513,0.009773843811168246,-2128,-778,265,4042,333,100688
12:7:18.428,21433,-993.1640625,44.921875,-148.4375,0.09162978572970232,-0.08063421144213802,0.009773843811168246,-2128,-778,265,4042,333,100688
12:7:18.448,21434,-995.1171875,34.1796875,-164.0625,0.0867428638241182,-0.052534410485029326,0.014660765716752368,-2128,-778,265,4042,333,100688
12:7:18.459,21435,-996.09375,17.578125,-153.3203125,0.052534410485029326,-0.010995574287564277,0.0012217304763960308,-2128,-778,265,4042,333,100688
12:7:18.479,21436,-990.234375,24.4140625,-137.6953125,0.06963863715457375,0.006108652381980153,-0.006108652381980153,-2119,-775,256,4042,333,100688
12:7:18.499,21437,-991.2109375,40.0390625,-111.328125,0.1038470904936626,0.019547687622336492,-0.008552113334772215,-2119,-775,256,4042,333,100688
12:7:18.520,21438,-995.1171875,25.390625,-78.125,0.0989601685880785,0.012217304763960306,-0.0158824961931484,-2119,-775,256,4042,333,100688
12:7:18.540,21439,-990.234375,17.578125,-83.984375,0.05742133239061345,0.004886921905584123,-0.014660765716752368,-2119,-775,256,4042,333,100688
12:7:18.550,21440,-979.4921875,31.25,-90.8203125,0.014660765716752368,0.006108652381980153,-0.0158824961931484,-2123,-776,258,4042,333,100688
12:7:18.571,21441,-974.609375,39.0625,-90.8203125,-0.04031710572106901,-0.009773843811168246,-0.013439035240356337,-2123,-776,258,4042,333,100688
12:7:18.592,21442,-977.5390625,41.015625,-94.7265625,-0.019547687622336492,-0.0317649923862968,-0.012217304763960306,-2123,-776,258,4042,333,100688
12:7:18.613,21443,-981.4453125,45.8984375,-102.5390625,0.026878070480712675,-0.029321531433504737,-0.007330382858376184,-2123,-776,258,4042,333,100688
12:7:18.633,21444,-979.4921875,36.1328125,-95.703125,0.020769418098732523,-0.04642575810304917,0.008552113334772215,-2123,-776,258,4042,333,100688
12:7:18.644,21445,-987.3046875,20.5078125,-96.6796875,-0.008552113334772215,-0.051312680008633295,0.008552113334772215,-2123,-773,261,4042,333,100688
12:7:18.664,21446,-989.2578125,22.4609375,-114.2578125,-0.02809980095710871,-0.06230825429619757,0.0158824961931484,-2123,-773,261,4042,333,100688
12:7:18.685,21447,-988.28125,42.96875,-115.234375,-0.04398229715025711,-0.06108652381980154,0.019547687622336492,-2123,-773,261,4042,333,100688
12:7:18.705,21448,-991.2109375,45.8984375,-113.28125,-0.04276056667386108,-0.07574728953655392,0.025656340004316647,-2123,-773,261,4042,333,100688
12:7:18.716,21449,-990.234375,42.96875,-113.28125,0.019547687622336492,-0.08552113334772216,0.024434609527920613,-2123,-773,261,4042,333,100688
12:7:18.736,21450,-985.3515625,36.1328125,-121.09375,0.025656340004316647,-0.0635299847725936,0.03420845333908886,-2122,-772,259,4042,333,100688
12:7:18.757,21451,-981.4453125,41.015625,-112.3046875,0.01710422666954443,-0.06475171524898964,0.03420845333908886,-2122,-772,259,4042,333,100688
12:7:18.777,21452,-990.234375,35.15625,-106.4453125,0.03054326190990077,-0.0671951762017817,0.03543018381548489,-2122,-772,259,4042,333,100681
12:7:18.798,21453,-988.28125,26.3671875,-120.1171875,0.03054326190990077,-0.05375614096142535,0.021991148575128554,-2122,-772,259,4042,333,100681
12:7:18.808,21454,-978.515625,24.4140625,-118.1640625,-0.004886921905584123,-0.04642575810304917,0.0012217304763960308,-2123,-773,254,4042,333,100681
12:7:18.828,21455,-987.3046875,33.203125,-117.1875,-0.029321531433504737,-0.048869219055841226,0.009773843811168246,-2123,-773,254,4042,333,100681
12:7:18.849,21456,-992.1875,38.0859375,-114.2578125,-0.023212879051524585,-0.03298672286269283,0.007330382858376184,-2123,-773,254,4042,333,100681
12:7:18.869,21457,-995.1171875,32.2265625,-119.140625,-0.004886921905584123,-0.0317649923862968,0.0024434609527920616,-2123,-773,254,4042,333,100681
12:7:18.890,21458,-993.1640625,26.3671875,-116.2109375,-0.026878070480712675,-0.04031710572106901,-0.007330382858376184,-2123,-773,254,4042,333,100681
12:7:18.900,21459,-983.3984375,32.2265625,-119.140625,-0.04520402762665313,-0.02809980095710871,-0.007330382858376184,-2122,-778,265,4042,333,100681
12:7:18.920,21460,-979.4921875,35.15625,-115.234375,-0.051312680008633295,-0.03543018381548489,-0.008552113334772215,-2122,-778,265,4042,333,100681
12:7:18.940,21461,-983.3984375,35.15625,-109.375,-0.04642575810304917,-0.026878070480712675,-0.0024434609527920616,-2122,-778,265,4042,333,100681
12:7:18.961,21462,-989.2578125,41.9921875,-113.28125,-0.048869219055841226,-0.010995574287564277,-0.0012217304763960308,-2122,-778,265,4042,333,100681
12:7:18.971,21463,-988.28125,45.8984375,-111.328125,-0.03787364476827696,-0.012217304763960306,-0.008552113334772215,-2122,-778,265,4042,333,100681
12:7:18.991,21464,-986.328125,41.9921875,-116.2109375,-0.012217304763960306,-0.020769418098732523,-0.009773843811168246,-2122,-769,256,4042,333,100681
12:7:19.12,21465,-993.1640625,39.0625,-110.3515625,-0.04642575810304917,-0.01832595714594046,-0.0024434609527920616,-2122,-769,256,4042,333,100681
12:7:19.33,21466,-985.3515625,39.0625,-118.1640625,-0.05986479334340551,-0.026878070480712675,-0.007330382858376184,-2122,-769,256,4042,333,100681
12:7:19.54,21467,-981.4453125,46.875,-113.28125,-0.05375614096142535,-0.020769418098732523,-0.020769418098732523,-2122,-769,256,4042,333,100681
12:7:19.64,21468,-980.46875,45.8984375,-108.3984375,-0.04153883619746505,-0.03665191429188092,-0.006108652381980153,-2125,-775,253,4042,333,100681
12:7:19.85,21469,-981.4453125,44.921875,-114.2578125,-0.012217304763960306,-0.03298672286269283,-0.004886921905584123,-2125,-775,253,4042,333,100681
12:7:19.106,21470,-985.3515625,40.0390625,-118.1640625,-0.014660765716752368,-0.03054326190990077,0.003665191429188092,-2125,-775,253,4042,333,100681
12:7:19.126,21471,-985.3515625,44.921875,-115.234375,-0.012217304763960306,-0.03787364476827696,-0.004886921905584123,-2125,-775,253,4042,333,100681
12:7:19.137,21472,-990.234375,41.015625,-107.421875,-0.01832595714594046,-0.04153883619746505,-0.003665191429188092,-2125,-775,253,4042,333,100681
12:7:19.157,21473,-991.2109375,34.1796875,-107.421875,-0.01832595714594046,-0.04153883619746505,0.004886921905584123,-2130,-777,260,4042,333,100681
12:7:19.178,21474,-987.3046875,36.1328125,-116.2109375,-0.03298672286269283,-0.039095375244672985,-0.004886921905584123,-2130,-777,260,4042,333,100681
12:7:19.198,21475,-982.421875,45.8984375,-117.1875,-0.04153883619746505,-0.039095375244672985,-0.003665191429188092,-2130,-777,260,4042,333,100681
12:7:19.208,21476,-985.3515625,58.59375,-116.2109375,-0.0317649923862968,-0.04276056667386108,-0.012217304763960306,-2130,-777,260,4042,333,100681
12:7:19.229,21477,-987.3046875,44.921875,-122.0703125,-0.010995574287564277,-0.04031710572106901,0.004886921905584123,-2130,-777,260,4042,333,100681
12:7:19.250,21478,-989.2578125,41.015625,-119.140625,0.006108652381980153,-0.04031710572106901,-0.003665191429188092,-2122,-774,263,4042,333,100681
12:7:19.271,21479,-985.3515625,30.2734375,-120.1171875,-0.024434609527920613,-0.04153883619746505,-0.0012217304763960308,-2122,-774,263,4042,333,100681
12:7:19.281,21480,-985.3515625,40.0390625,-120.1171875,-0.01832595714594046,-0.025656340004316647,-0.003665191429188092,-2122,-774,263,4042,333,100681
12:7:19.302,21481,-981.4453125,39.0625,-120.1171875,-0.010995574287564277,-0.04520402762665313,0.0012217304763960308,-2122,-774,263,4042,333,100681
12:7:19.322,21482,-987.3046875,35.15625,-122.0703125,-0.03787364476827696,-0.0476474885794452,0.0012217304763960308,-2122,-774,263,4042,333,100681
12:7:19.342,21483,-981.4453125,41.015625,-121.09375,-0.03787364476827696,-0.0317649923862968,0.009773843811168246,-2124,-775,263,4042,333,100681
12:7:19.363,21484,-985.3515625,42.96875,-117.1875,-0.0476474885794452,-0.04276056667386108,0.008552113334772215,-2124,-775,263,4042,333,100681
12:7:19.383,21485,-991.2109375,40.0390625,-118.1640625,-0.05619960191421742,-0.03420845333908886,0.009773843811168246,-2124,-775,263,4042,333,100681
12:7:19.393,21486,-997.0703125,32.2265625,-117.1875,-0.052534410485029326,-0.03298672286269283,0.008552113334772215,-2124,-775,263,4042,333,100681
12:7:19.413,21487,-998.046875,31.25,-115.234375,-0.0635299847725936,-0.03420845333908886,0.029321531433504737,-2128,-777,254,4042,333,100681
12:7:19.434,21488,-996.09375,37.109375,-125.9765625,-0.07574728953655392,-0.021991148575128554,0.003665191429188092,-2128,-777,254,4042,333,100681
12:7:19.454,21489,-993.1640625,58.59375,-134.765625,-0.08552113334772216,-0.020769418098732523,0.0,-2128,-777,254,4042,333,100681
12:7:19.465,21490,-979.4921875,63.4765625,-133.7890625,-0.03787364476827696,-0.020769418098732523,0.0024434609527920616,-2128,-777,254,4042,333,100681
12:7:19.485,21491,-978.515625,66.40625,-123.046875,0.01710422666954443,-0.021991148575128554,-0.006108652381980153,-2128,-777,254,4042,333,100681
12:7:19.506,21492,-984.375,49.8046875,-117.1875,0.025656340004316647,-0.0158824961931484,-0.0012217304763960308,-2127,-777,264,4042,333,100681
12:7:19.526,21493,-979.4921875,40.0390625,-114.2578125,0.02809980095710871,-0.01710422666954443,-0.0012217304763960308,-2127,-777,264,4042,333,100681
12:7:19.547,21494,-977.5390625,30.2734375,-119.140625,0.01710422666954443,-0.013439035240356337,-0.007330382858376184,-2127,-777,264,4042,333,100681
12:7:19.557,21495,-987.3046875,28.3203125,-123.046875,0.0,-0.009773843811168246,0.0158824961931484,-2127,-777,264,4042,333,100681
12:7:19.578,21496,-981.4453125,26.3671875,-128.90625,-0.019547687622336492,-0.014660765716752368,0.013439035240356337,-2127,-777,264,4042,333,100681
12:7:19.598,21497,-978.515625,27.34375,-127.9296875,-0.03298672286269283,-0.009773843811168246,0.03420845333908886,-2119,-771,273,4042,333,100681
12:7:19.618,21498,-987.3046875,38.0859375,-126.953125,-0.07208209810736582,-0.01710422666954443,0.014660765716752368,-2119,-771,273,4042,333,100681
12:7:19.629,21499,-993.1640625,32.2265625,-125.0,-0.09407324668249437,-0.009773843811168246,0.051312680008633295,-2119,-771,273,4042,333,100681
12:7:19.690,21500,-989.2578125,44.921875,-127.9296875,-0.06841690667817772,-0.01832595714594046,0.04642575810304917,-2119,-771,273,4042,333,100681
12:7:19.711,21501,-983.3984375,47.8515625,-128.90625,-0.06475171524898964,-0.03543018381548489,0.052534410485029326,-2123,-775,264,4042,333,100681
12:7:19.721,21502,-977.5390625,52.734375,-130.859375,-0.05986479334340551,-0.029321531433504737,0.03543018381548489,-2123,-775,264,4042,333,100686
12:7:19.742,21503,-981.4453125,56.640625,-128.90625,-0.05497787143782139,-0.03054326190990077,0.058643062867009474,-2123,-775,264,4042,333,100686
12:7:19.762,21504,-978.515625,66.40625,-119.140625,-0.03787364476827696,-0.021991148575128554,0.04153883619746505,-2123,-775,264,4042,333,100686
12:7:19.783,21505,-968.75,65.4296875,-125.9765625,-0.0158824961931484,-0.029321531433504737,0.03787364476827696,-2123,-775,264,4042,333,100686
12:7:19.803,21506,-969.7265625,67.3828125,-125.9765625,0.025656340004316647,-0.0317649923862968,0.025656340004316647,-2126,-776,273,4042,333,100686
12:7:19.813,21507,-975.5859375,52.734375,-125.0,0.06108652381980154,-0.039095375244672985,0.02809980095710871,-2126,-776,273,4042,333,100686
12:7:19.834,21508,-981.4453125,41.9921875,-127.9296875,0.05986479334340551,-0.051312680008633295,0.03787364476827696,-2126,-776,273,4042,333,100686
12:7:19.855,21509,-981.4453125,45.8984375,-121.09375,0.02809980095710871,-0.05619960191421742,0.02809980095710871,-2126,-776,273,4042,333,100686
12:7:19.875,21510,-976.5625,41.9921875,-122.0703125,-0.0024434609527920616,-0.05742133239061345,0.025656340004316647,-2126,-776,273,4042,333,100686
12:7:19.885,21511,-988.28125,42.96875,-119.140625,-0.0024434609527920616,-0.0671951762017817,0.012217304763960306,-2122,-772,267,4042,333,100686
12:7:19.905,21512,-987.3046875,50.78125,-116.2109375,-0.021991148575128554,-0.08429940287132612,0.02809980095710871,-2122,-772,267,4042,333,100686
12:7:19.925,21513,-996.09375,48.828125,-118.1640625,-0.008552113334772215,-0.07208209810736582,0.03420845333908886,-2122,-772,267,4042,333,100686
12:7:19.946,21514,-999.0234375,45.8984375,-115.234375,-0.007330382858376184,-0.07452555906015788,0.03298672286269283,-2122,-772,267,4042,333,100686
12:7:19.966,21515,-998.046875,52.734375,-122.0703125,-0.0158824961931484,-0.06963863715457375,0.026878070480712675,-2128,-768,275,4042,333,100686
12:7:19.976,21516,-999.0234375,54.6875,-117.1875,-0.03787364476827696,-0.06841690667817772,0.03420845333908886,-2128,-768,275,4042,333,100686
12:7:19.996,21517,-998.046875,58.59375,-110.3515625,-0.04031710572106901,-0.07208209810736582,0.04153883619746505,-2128,-768,275,4042,333,100686
12:7:20.17,21518,-995.1171875,55.6640625,-117.1875,-0.013439035240356337,-0.07086036763096978,0.03054326190990077,-2128,-768,275,4042,333,100686
12:7:20.38,21519,-996.09375,52.734375,-119.140625,-0.020769418098732523,-0.06108652381980154,0.03543018381548489,-2128,-768,275,4042,333,100686
12:7:20.58,21520,-993.1640625,58.59375,-120.1171875,-0.0158824961931484,-0.048869219055841226,0.025656340004316647,-2126,-769,265,4042,333,100686
12:7:20.68,21521,-992.1875,52.734375,-127.9296875,-0.0158824961931484,-0.05497787143782139,0.039095375244672985,-2126,-769,265,4042,333,100686
12:7:20.88,21522,-991.2109375,48.828125,-129.8828125,-0.01710422666954443,-0.03787364476827696,0.029321531433504737,-2126,-769,265,4042,333,100686
12:7:20.109,21523,-987.3046875,59.5703125,-124.0234375,-0.03665191429188092,-0.03298672286269283,0.03420845333908886,-2126,-769,265,4042,333,100686
12:7:20.129,21524,-987.3046875,60.546875,-127.9296875,-0.03420845333908886,-0.025656340004316647,0.04153883619746505,-2126,-769,265,4042,333,100686
12:7:20.149,21525,-981.4453125,61.5234375,-132.8125,-0.03665191429188092,-0.012217304763960306,0.029321531433504737,-2129,-771,264,4042,333,100686
12:7:20.159,21526,-988.28125,66.40625,-130.859375,-0.04031710572106901,0.004886921905584123,0.019547687622336492,-2129,-771,264,4042,333,100686
12:7:20.180,21527,-993.1640625,71.2890625,-129.8828125,-0.04642575810304917,0.007330382858376184,0.01832595714594046,-2129,-771,264,4042,333,100686
12:7:20.200,21528,-997.0703125,68.359375,-128.90625,-0.020769418098732523,0.013439035240356337,0.014660765716752368,-2129,-771,264,4042,333,100686
12:7:20.220,21529,-990.234375,66.40625,-127.9296875,-0.019547687622336492,0.019547687622336492,0.012217304763960306,-2123,-767,267,4042,333,100686
12:7:20.241,21530,-983.3984375,77.1484375,-126.953125,-0.025656340004316647,0.01832595714594046,0.006108652381980153,-2123,-767,267,4042,333,100686
12:7:20.251,21531,-984.375,74.21875,-123.046875,-0.006108652381980153,0.0158824961931484,0.026878070480712675,-2123,-767,267,4042,333,100686
12:7:20.272,21532,-979.4921875,60.546875,-126.953125,-0.0012217304763960308,0.013439035240356337,0.021991148575128554,-2123,-767,267,4042,333,100686
12:7:20.292,21533,-975.5859375,53.7109375,-132.8125,-0.0024434609527920616,0.013439035240356337,0.01832595714594046,-2123,-767,267,4042,333,100686
12:7:20.313,21534,-978.515625,45.8984375,-131.8359375,-0.048869219055841226,0.012217304763960306,0.03054326190990077,-2126,-764,266,4042,333,100686
12:7:20.323,21535,-983.3984375,61.5234375,-131.8359375,-0.05375614096142535,0.01710422666954443,0.019547687622336492,-2126,-764,266,4042,333,100686
12:7:20.344,21536,-977.5390625,64.453125,-130.859375,-0.06841690667817772,0.01832595714594046,0.01710422666954443,-2126,-764,266,4042,333,100686
12:7:20.364,21537,-985.3515625,60.546875,-129.8828125,-0.05619960191421742,-0.006108652381980153,0.03054326190990077,-2126,-764,266,4042,333,100686
12:7:20.384,21538,-984.375,52.734375,-133.7890625,-0.06230825429619757,-0.006108652381980153,0.0158824961931484,-2126,-764,266,4042,333,100686
12:7:20.405,21539,-976.5625,48.828125,-129.8828125,-0.07574728953655392,0.0,0.023212879051524585,-2129,-767,261,4042,333,100686
12:7:20.415,21540,-977.5390625,55.6640625,-133.7890625,-0.09773843811168245,0.024434609527920613,0.01832595714594046,-2129,-767,261,4042,333,100686
12:7:20.436,21541,-974.609375,66.40625,-132.8125,-0.09285151620609834,0.013439035240356337,0.010995574287564277,-2129,-767,261,4042,333,100686
12:7:20.457,21542,-978.515625,63.4765625,-132.8125,-0.10140362954087055,0.006108652381980153,0.006108652381980153,-2129,-767,261,4042,333,100686
12:7:20.477,21543,-987.3046875,59.5703125,-136.71875,-0.11239920382843484,-0.0012217304763960308,0.010995574287564277,-2130,-768,268,4042,333,100686
12:7:20.487,21544,-976.5625,60.546875,-137.6953125,-0.11362093430483088,-0.007330382858376184,0.003665191429188092,-2130,-768,268,4042,333,100686
12:7:20.529,21545,-975.5859375,63.4765625,-141.6015625,-0.11606439525762292,-0.006108652381980153,0.004886921905584123,-2130,-768,268,4042,333,100686
