Timestamp,SampleNr,AccX [mg],AccY [mg],AccZ [mg],GyrX [rad/s],GyrY [rad/s],GyrZ [rad/s],MagX [mGs],MagY [mGs],-MagZ [mGs],Battery [mV],Temperature [0.1C],Pressure[Pa]
11:53:22.450,19134,-33.203125,644.53125,-743.1640625,-0.019547687622336492,-0.0024434609527920616,0.006108652381980153,-2269,-2016,-2107,3820,311,100682
11:53:22.470,19135,-36.1328125,658.203125,-744.140625,-0.020769418098732523,-0.0012217304763960308,0.0024434609527920616,-2271,-2025,-2109,3820,311,100682
11:53:22.491,19136,-29.296875,659.1796875,-748.046875,-0.007330382858376184,-0.004886921905584123,0.007330382858376184,-2273,-2025,-2102,3820,311,100682
11:53:22.655,19137,-32.2265625,655.2734375,-750.0,0.012217304763960306,0.0,0.0,-2273,-2021,-2097,3820,311,100682
11:53:22.666,19138,-30.2734375,637.6953125,-762.6953125,-0.012217304763960306,0.014660765716752368,0.007330382858376184,-2277,-2018,-2111,3820,311,100682
11:53:22.727,19139,-33.203125,646.484375,-742.1875,-0.009773843811168246,-0.01710422666954443,0.004886921905584123,-2278,-2020,-2120,3820,311,100682
11:53:22.747,19141,-22.4609375,653.3203125,-758.7890625,-0.010995574287564277,-0.009773843811168246,0.0012217304763960308,-2256,-2012,-2108,3820,311,100682
11:53:22.848,19142,-29.296875,670.8984375,-750.9765625,0.3042108886226117,0.003665191429188092,-0.0012217304763960308,-2275,-2019,-2104,3820,311,100682
11:53:22.869,19143,-28.3203125,663.0859375,-750.9765625,0.009773843811168246,-0.004886921905584123,0.008552113334772215,-2273,-2026,-2109,3820,311,100682
11:53:22.889,19144,-32.2265625,657.2265625,-747.0703125,-0.0012217304763960308,-0.006108652381980153,0.0,-2276,-2026,-2102,3820,311,100682
11:53:22.910,19145,-37.109375,651.3671875,-751.953125,-0.006108652381980153,-0.01832595714594046,0.004886921905584123,-2271,-2019,-2101,3820,311,100682
11:53:22.920,19146,-35.15625,658.203125,-750.0,-0.004886921905584123,-0.010995574287564277,-0.019547687622336492,-2273,-2020,-2099,3820,311,100682
11:53:22.940,19147,-33.203125,656.25,-751.953125,0.01710422666954443,-0.019547687622336492,-0.026878070480712675,-2273,-2015,-2099,3820,311,100682
11:53:22.961,19148,-29.296875,640.625,-751.953125,-0.004886921905584123,-0.021991148575128554,-0.029321531433504737,-2272,-2023,-2105,3820,311,100682
11:53:22.981,19149,-34.1796875,654.296875,-756.8359375,-0.0158824961931484,-0.014660765716752368,-0.026878070480712675,-2276,-2024,-2106,3820,311,100682
11:53:23.1,19150,-30.2734375,667.96875,-741.2109375,-0.007330382858376184,-0.0012217304763960308,-0.025656340004316647,-2280,-2024,-2106,3820,311,100682
11:53:23.12,19151,-30.2734375,651.3671875,-736.328125,-0.008552113334772215,0.014660765716752368,-0.021991148575128554,-2274,-2022,-2100,3820,311,100682
11:53:23.32,19152,-39.0625,651.3671875,-739.2578125,-0.012217304763960306,0.0024434609527920616,-0.024434609527920613,-2275,-2025,-2096,3820,311,100682
11:53:23.52,19159,-40.0390625,672.8515625,-745.1171875,-0.0635299847725936,0.013439035240356337,0.010995574287564277,-2276,-2015,-2089,3820,311,100682
11:53:23.73,19160,-32.2265625,662.109375,-743.1640625,-0.01832595714594046,-0.0158824961931484,-0.004886921905584123,-2278,-2018,-2094,3820,311,100682
11:53:23.94,19162,-33.203125,643.5546875,-761.71875,-0.021991148575128554,-0.003665191429188092,0.0,-2272,-2013,-2096,3820,311,100682
11:53:23.104,19163,-40.0390625,669.921875,-751.953125,-0.03054326190990077,-0.007330382858376184,-0.010995574287564277,-2277,-2018,-2104,3820,311,100682
11:53:23.124,19169,-38.0859375,663.0859375,-746.09375,-0.03543018381548489,-0.008552113334772215,-0.01832595714594046,-2260,-2012,-2099,3820,311,100682
11:53:23.144,19170,-28.3203125,669.921875,-749.0234375,0.014660765716752368,-0.003665191429188092,-0.021991148575128554,-2281,-2015,-2097,3820,311,100682
11:53:23.165,19171,-40.0390625,665.0390625,-740.234375,0.04276056667386108,-0.026878070480712675,-0.008552113334772215,-2276,-2020,-2102,3820,311,100682
11:53:23.175,19172,-43.9453125,652.34375,-725.5859375,0.03054326190990077,-0.0012217304763960308,-0.023212879051524585,-2279,-2021,-2093,3820,311,100682
11:53:23.195,19173,-33.203125,651.3671875,-745.1171875,0.0012217304763960308,0.0012217304763960308,-0.01832595714594046,-2279,-2016,-2088,3820,311,100682
11:53:23.216,19174,-37.109375,647.4609375,-744.140625,-0.03665191429188092,0.010995574287564277,-0.019547687622336492,-2278,-2021,-2083,3820,311,100682
11:53:23.236,19175,-42.96875,674.8046875,-745.1171875,-0.024434609527920613,0.01832595714594046,-0.006108652381980153,-2280,-2015,-2099,3820,311,100682
11:53:23.256,19176,-40.0390625,657.2265625,-739.2578125,0.0476474885794452,0.004886921905584123,-0.008552113334772215,-2264,-2008,-2097,3820,311,100682
11:53:23.267,19177,-34.1796875,630.859375,-746.09375,0.051312680008633295,-0.024434609527920613,-0.006108652381980153,-2281,-2014,-2093,3826,311,100678
11:53:23.287,19178,-43.9453125,636.71875,-754.8828125,-0.013439035240356337,-0.010995574287564277,0.0,-2282,-2020,-2098,3826,311,100678
11:53:23.307,19179,-36.1328125,673.828125,-750.0,-0.04031710572106901,0.007330382858376184,-0.0012217304763960308,-2281,-2021,-2093,3826,311,100678
11:53:23.328,19180,-30.2734375,670.8984375,-742.1875,0.0,-0.01710422666954443,0.0,-2270,-2017,-2090,3826,311,100678
11:53:23.348,19181,-37.109375,649.4140625,-759.765625,0.0317649923862968,-0.012217304763960306,-0.006108652381980153,-2284,-2023,-2110,3826,311,100678
11:53:23.358,19182,-48.828125,658.203125,-744.140625,-0.004886921905584123,-0.004886921905584123,0.010995574287564277,-2272,-2015,-2113,3826,311,100678
11:53:23.378,19183,-34.1796875,656.25,-744.140625,-0.029321531433504737,0.0,0.003665191429188092,-2261,-2014,-2097,3826,311,100678
11:53:23.398,19184,-33.203125,654.296875,-749.0234375,-0.010995574287564277,-0.012217304763960306,0.0,-2286,-2017,-2102,3826,311,100678
11:53:23.419,19185,-41.9921875,637.6953125,-745.1171875,-0.0024434609527920616,-0.0317649923862968,0.007330382858376184,-2287,-2017,-2095,3826,311,100678
11:53:23.429,19186,-35.15625,646.484375,-750.0,-0.019547687622336492,-0.019547687622336492,-0.0024434609527920616,-2278,-2020,-2099,3826,311,100678
11:53:23.449,19187,-41.9921875,642.578125,-749.0234375,-0.039095375244672985,-0.013439035240356337,-0.003665191429188092,-2259,-2010,-2105,3826,311,100678
11:53:23.470,19188,-37.109375,669.921875,-742.1875,-0.0476474885794452,-0.0024434609527920616,-0.003665191429188092,-2282,-2017,-2091,3826,311,100678
11:53:23.490,19189,-41.9921875,676.7578125,-735.3515625,-0.023212879051524585,-0.014660765716752368,-0.003665191429188092,-2277,-2018,-2101,3826,311,100678
11:53:23.510,19190,-36.1328125,663.0859375,-751.953125,0.010995574287564277,-0.009773843811168246,-0.006108652381980153,-2275,-2014,-2097,3826,311,100678
11:53:23.520,19191,-34.1796875,648.4375,-745.1171875,0.010995574287564277,0.0,-0.006108652381980153,-2282,-2020,-2095,3826,311,100678
11:53:23.541,19192,-39.0625,639.6484375,-744.140625,-0.02809980095710871,0.0012217304763960308,-0.0012217304763960308,-2284,-2020,-2100,3826,311,100678
11:53:23.561,19193,-41.9921875,659.1796875,-742.1875,-0.039095375244672985,-0.012217304763960306,0.019547687622336492,-2279,-2018,-2106,3826,311,100678
11:53:23.582,19194,-46.875,666.015625,-728.515625,-0.0024434609527920616,-0.02809980095710871,0.013439035240356337,-2284,-2017,-2106,3826,311,100678
11:53:23.602,19195,-36.1328125,647.4609375,-722.65625,0.004886921905584123,0.007330382858376184,0.0,-2279,-2015,-2111,3826,311,100678
11:53:23.612,19196,-44.921875,624.0234375,-722.65625,0.008552113334772215,0.024434609527920613,0.026878070480712675,-2278,-2013,-2103,3826,311,100678
11:53:23.633,19197,-41.015625,611.328125,-721.6796875,-0.0317649923862968,0.051312680008633295,0.05497787143782139,-2261,-2005,-2096,3826,311,100678
11:53:23.653,19198,-45.8984375,610.3515625,-717.7734375,-0.10506882097005865,0.0635299847725936,0.10873401239924674,-2280,-2011,-2102,3826,311,100678
11:53:23.673,19199,-39.0625,597.65625,-679.6875,-0.23945917337362205,0.09651670763528641,0.1343903524035634,-2285,-2010,-2097,3826,311,100678
11:53:23.694,19200,-37.109375,564.453125,-676.7578125,-0.3652974124424132,0.1270599695451872,0.1661553447898602,-2281,-2008,-2097,3826,311,100678
11:53:23.704,19201,-51.7578125,641.6015625,-660.15625,-0.4288273972150068,0.16737707526625623,0.19181168479417682,-2279,-2008,-2095,3826,311,100678
11:53:23.724,19202,-18.5546875,665.0390625,-663.0859375,-0.2748893571891069,0.17837264955382048,0.21258110289290938,-2276,-2003,-2100,3826,311,100678
11:53:23.745,19203,-1.953125,659.1796875,-698.2421875,-0.1710422666954443,0.20891591146372127,0.24556782575560218,-2272,-2002,-2094,3826,311,100678
11:53:23.765,19204,-14.6484375,662.109375,-707.03125,-0.1148426647812269,0.28344147052387914,0.2932153143350474,-2253,-1994,-2094,3826,311,100678
11:53:23.775,19205,3.90625,686.5234375,-680.6640625,-0.04520402762665313,0.3042108886226117,0.29932396671702755,-2264,-1996,-2098,3826,311,100678
11:53:23.795,19206,3.90625,674.8046875,-652.34375,0.01710422666954443,0.3286454981505323,0.3103195410045918,-2264,-1996,-2103,3826,311,100678
11:53:23.816,19207,8.7890625,631.8359375,-645.5078125,0.048869219055841226,0.33719761148530447,0.32131511529215606,-2256,-1999,-2106,3826,311,100678
11:53:23.836,19208,18.5546875,609.375,-681.640625,-0.04276056667386108,0.3530801076784529,0.3469714552964728,-2234,-1992,-2100,3826,311,100678
11:53:23.857,19209,22.4609375,682.6171875,-684.5703125,-0.08063421144213802,0.3799581781591656,0.3652974124424132,-2248,-1998,-2103,3826,311,100678
11:53:23.867,19210,34.1796875,704.1015625,-674.8046875,-0.021991148575128554,0.4153883619746504,0.38484510006474965,-2241,-1998,-2109,3826,311,100678
11:53:23.887,19211,27.34375,700.1953125,-656.25,0.02809980095710871,0.45204027626653137,0.3323106895797204,-2234,-1992,-2105,3826,311,100678
11:53:23.908,19212,59.5703125,692.3828125,-661.1328125,0.052534410485029326,0.4825835381764321,0.31642819338657197,-2236,-1993,-2107,3826,311,100678
11:53:23.928,19213,103.515625,663.0859375,-698.2421875,0.0635299847725936,0.4789183467472441,0.29932396671702755,-2233,-2000,-2103,3826,311,100678
11:53:23.948,19214,103.515625,676.7578125,-704.1015625,0.11362093430483088,0.4923573819876005,0.3298672286269283,-2226,-1996,-2108,3826,311,100678
11:53:23.959,19215,126.953125,649.4140625,-725.5859375,0.11728612573401895,0.5314527572322734,0.33108895910332437,-2218,-1997,-2100,3826,311,100678
11:53:23.979,19216,132.8125,667.96875,-687.5,0.1343903524035634,0.5619960191421741,0.33475415053251245,-2212,-2000,-2095,3826,311,100678
11:53:23.999,19217,166.015625,665.0390625,-696.2890625,0.1710422666954443,0.5644394800949663,0.3200933848157601,-2208,-1999,-2095,3826,311,100678
11:53:24.19,19218,184.5703125,656.25,-677.734375,0.17592918860102844,0.5766567848589266,0.3384193419617005,-2192,-1998,-2100,3826,311,100678
11:53:24.30,19219,169.921875,600.5859375,-703.125,0.0671951762017817,0.6218608124855797,0.3885102914939378,-2195,-2004,-2107,3826,311,100678
11:53:24.50,19220,173.828125,628.90625,-694.3359375,-0.024434609527920613,0.6585127267774605,0.437379510549779,-2195,-2004,-2106,3826,311,100678
11:53:24.70,19221,223.6328125,668.9453125,-656.25,0.10018189906447451,0.6487388829662923,0.4434881629317592,-2185,-2001,-2103,3826,311,100678
11:53:24.91,19222,239.2578125,643.5546875,-659.1796875,0.29810223624063154,0.6377433086787281,0.4569271981721155,-2180,-1999,-2094,3826,311,100678
11:53:24.111,19223,205.078125,554.6875,-684.5703125,0.1734857276482364,0.6633996486830448,0.5302310267558774,-2176,-2005,-2093,3826,311,100678
11:53:24.121,19224,233.3984375,555.6640625,-680.6640625,-0.07696902001294993,0.7195992505972622,0.5314527572322734,-2162,-2003,-2103,3826,311,100678
11:53:24.141,19225,300.78125,612.3046875,-691.40625,-0.1075122819228507,0.7476990515543708,0.5326744877086694,-2126,-1993,-2094,3826,311,100678
11:53:24.162,19226,307.6171875,630.859375,-665.0390625,0.06963863715457375,0.7428121296487867,0.5436700619962337,-2147,-2009,-2104,3826,311,100678
11:53:24.182,19227,302.734375,631.8359375,-666.015625,0.19669860669976097,0.7464773210779747,0.6169738905799955,-2135,-2007,-2099,3820,311,100682
11:53:24.202,19228,289.0625,606.4453125,-623.046875,0.1392772743091475,0.8197811496617367,0.6328563867731439,-2128,-2006,-2098,3820,311,100682
11:53:24.212,19229,343.75,550.78125,-663.0859375,0.026878070480712675,0.8283332629965089,0.6304129258203519,-2112,-2008,-2097,3820,311,100682
11:53:24.233,19230,406.25,534.1796875,-645.5078125,-0.12828170002158323,0.8307767239493008,0.6377433086787281,-2112,-2009,-2096,3820,311,100682
11:53:24.253,19231,365.234375,541.9921875,-627.9296875,-0.14049900478554353,0.8613199858592017,0.7220427115500542,-2103,-2013,-2114,3820,311,100682
11:53:24.273,19232,393.5546875,616.2109375,-642.578125,-0.05619960191421742,0.9236282401553992,0.7464773210779747,-2099,-2011,-2110,3820,311,100682
11:53:24.293,19233,502.9296875,563.4765625,-640.625,0.01832595714594046,0.9358455449193596,0.7208209810736581,-2085,-2008,-2117,3820,311,100682
11:53:24.323,19234,472.65625,551.7578125,-630.859375,0.2675589743307307,0.9773843811168247,0.7757988525114795,-2074,-2010,-2114,3820,311,100682
11:53:24.344,19235,439.453125,564.453125,-611.328125,0.4618141200776996,1.0519099401769825,0.836885376331281,-2059,-2014,-2112,3820,311,100682
11:53:24.364,19236,504.8828125,540.0390625,-620.1171875,0.4410447019789671,1.0971139678036357,0.8649851772883896,-2048,-2019,-2109,3820,311,100682
11:53:24.385,19237,574.21875,537.109375,-589.84375,0.2748893571891069,1.112996463996784,0.8906415172927065,-2038,-2028,-2117,3820,311,100682
11:53:24.395,19238,596.6796875,522.4609375,-594.7265625,0.32131511529215606,1.160643952576229,0.8967501696746865,-2020,-2035,-2121,3820,311,100682
11:53:24.415,19239,660.15625,492.1875,-670.8984375,0.5448917924726296,1.2058479802028823,0.915076126820627,-2006,-2033,-2121,3820,311,100682
11:53:24.436,19240,619.140625,433.59375,-617.1875,0.6548475353482726,1.1618656830526253,1.0042624515975374,-2004,-2049,-2118,3820,311,100682
11:53:24.456,19241,672.8515625,317.3828125,-621.09375,0.831998454425697,1.1007791592328238,1.069014166846527,-1986,-2052,-2125,3820,311,100682
11:53:24.466,19242,699.21875,415.0390625,-667.96875,1.1252137687607444,1.0787880106576953,1.0995574287564276,-1983,-2061,-2127,3820,311,100682
11:53:24.487,19243,676.7578125,440.4296875,-621.09375,1.2034045192500902,1.1691960659110014,1.1691960659110014,-1960,-2071,-2133,3820,311,100682
11:53:24.547,19244,653.3203125,316.40625,-589.84375,0.9492845801597158,1.1704177963873974,1.2070697106792785,-1954,-2091,-2132,3820,311,100682
11:53:24.557,19245,801.7578125,378.90625,-625.0,0.6511823439190844,1.0946705068508435,1.115439924949576,-1950,-2096,-2137,3820,311,100682
11:53:24.578,19246,823.2421875,475.5859375,-648.4375,0.6157521601035995,1.0372491744602301,1.1056660811384078,-1932,-2111,-2137,3820,311,100682
11:53:24.598,19247,791.9921875,444.3359375,-597.65625,0.5986479334340551,1.0225884087434776,1.1313224211427244,-1930,-2123,-2146,3820,311,100682
11:53:24.619,19248,866.2109375,395.5078125,-615.234375,0.5864306286700948,1.0091493735031216,1.0934487763744476,-1918,-2128,-2157,3820,311,100682
11:53:24.629,19249,855.46875,355.46875,-615.234375,0.515570261039125,1.028697061125458,1.0409143658894182,-1911,-2132,-2148,3820,311,100682
11:53:24.649,19250,867.1875,324.21875,-594.7265625,0.3726277953007894,1.02503186969627,1.0030407211211414,-1899,-2145,-2164,3820,311,100682
11:53:24.670,19251,896.484375,363.28125,-584.9609375,0.3824016391119576,1.0225884087434776,0.9272934315845873,-1897,-2148,-2156,3820,311,100682
11:53:24.690,19252,968.75,375.0,-588.8671875,0.5119050696099369,1.0445795573186063,0.8429940287132612,-1888,-2153,-2169,3820,311,100682
11:53:24.710,19253,990.234375,325.1953125,-599.609375,0.8759807515759541,1.1044443506620119,0.7623598172711232,-1854,-2158,-2180,3820,311,100682
11:53:24.721,19254,948.2421875,262.6953125,-554.6875,1.0421360963658144,1.1826351011513576,0.753807703936351,-1878,-2171,-2183,3820,311,100682
11:53:24.741,19255,894.53125,257.8125,-461.9140625,1.0348057135074382,1.1838568316277538,0.7086036763096979,-1865,-2183,-2189,3820,311,100682
11:53:24.762,19256,901.3671875,244.140625,-430.6640625,0.9272934315845873,1.0848966630396752,0.6829473363053812,-1856,-2196,-2199,3820,311,100682
11:53:24.782,19257,959.9609375,166.9921875,-441.40625,0.9896016858807848,1.0531316706533784,0.6475171524898963,-1847,-2204,-2213,3820,311,100682
11:53:24.803,19258,1005.859375,85.9375,-500.0,1.1313224211427244,1.0225884087434776,0.5839871677173026,-1845,-2217,-2213,3820,311,100682
11:53:24.813,19259,1004.8828125,14.6484375,-450.1953125,1.147204917335873,1.0005972601683493,0.5791002458117186,-1840,-2228,-2217,3820,311,100682
11:53:24.834,19260,929.6875,-78.125,-410.15625,0.8613199858592017,0.9737191896876365,0.6401867696315202,-1834,-2231,-2216,3820,311,100682
11:53:24.884,19261,909.1796875,-41.015625,-403.3203125,0.553443905807402,0.956614963018092,0.6841690667817772,-1834,-2242,-2232,3820,311,100682
11:53:24.904,19262,927.734375,27.34375,-390.625,0.41783182292744253,0.9615018849236762,0.6890559886873614,-1826,-2255,-2241,3820,311,100682
11:53:24.925,19263,935.546875,74.21875,-365.234375,0.46670104198328377,0.9162978572970231,0.6572909963010646,-1822,-2256,-2242,3820,311,100682
11:53:24.945,19264,958.0078125,102.5390625,-333.0078125,0.5082398781807488,0.9175195877734192,0.597426202957659,-1820,-2267,-2246,3820,311,100682
11:53:24.966,19265,963.8671875,-0.0,-291.015625,0.3274237676741363,0.8527678725244295,0.5461135229490258,-1813,-2276,-2266,3820,311,100682
11:53:24.976,19266,1009.765625,63.4765625,-291.9921875,0.16493361431346415,0.7977900010866079,0.5033529562751646,-1810,-2282,-2275,3820,311,100682
11:53:24.997,19267,1050.78125,97.65625,-285.15625,0.1478293876439197,0.8051203839449842,0.4276056667386108,-1804,-2279,-2284,3820,311,100682
11:53:25.17,19268,1057.6171875,117.1875,-279.296875,0.25900686099595854,0.8197811496617367,0.35063664672566086,-1806,-2288,-2289,3820,311,100682
11:53:25.38,19269,1069.3359375,78.125,-261.71875,0.27733281814189903,0.8442157591896573,0.27977627909469105,-1802,-2291,-2306,3820,311,100682
11:53:25.58,19270,1033.203125,40.0390625,-309.5703125,0.35918876006043304,0.7892378877518359,0.2101376419401173,-1804,-2294,-2295,3820,311,100682
11:53:25.68,19271,1000.9765625,39.0625,-295.8984375,0.4288273972150068,0.7574728953655392,0.1429424657383356,-1798,-2294,-2303,3820,311,100682
11:53:25.88,19272,1000.9765625,21.484375,-247.0703125,0.3824016391119576,0.6988298324985297,0.10140362954087055,-1800,-2295,-2310,3820,311,100682
11:53:25.109,19273,1003.90625,-15.625,-227.5390625,0.4471533543609472,0.5766567848589266,0.04642575810304917,-1794,-2302,-2320,3820,311,100682
11:53:25.129,19274,1003.90625,-29.296875,-244.140625,0.515570261039125,0.5009094953223726,-0.0158824961931484,-1784,-2298,-2326,3820,311,100682
11:53:25.140,19275,1009.765625,-42.96875,-258.7890625,0.519235452468313,0.42516220578581876,-0.0867428638241182,-1788,-2306,-2324,3820,311,100682
11:53:25.160,19276,1040.0390625,-23.4375,-254.8828125,0.5131268000863329,0.3824016391119576,-0.15638150097869194,-1788,-2304,-2323,3820,311,100682
11:53:25.180,19277,1072.265625,-61.5234375,-243.1640625,0.5070181477043528,0.33475415053251245,-0.17715091907742447,-1781,-2306,-2327,3832,311,100685
11:53:25.200,19278,1069.3359375,-76.171875,-259.765625,0.592539281052075,0.2577851305195625,-0.2186897552748895,-1779,-2307,-2335,3832,311,100685
11:53:25.221,19279,1058.59375,-20.5078125,-259.765625,0.6462954220135002,0.23579398194443396,-0.25656340004316647,-1778,-2304,-2347,3832,311,100685
11:53:25.231,19280,1033.203125,9.765625,-166.9921875,0.6927211801165495,0.2076941809873252,-0.27977627909469105,-1779,-2306,-2351,3832,311,100685
11:53:25.251,19281,1014.6484375,-54.6875,-130.859375,0.6878342582109653,0.1356120828799594,-0.2504547476611863,-1765,-2300,-2347,3832,311,100685
11:53:25.272,19282,999.0234375,-46.875,-128.90625,0.5803219762881145,0.11239920382843484,-0.21746802479849348,-1777,-2306,-2353,3832,311,100685
11:53:25.292,19283,1003.90625,-7.8125,-113.28125,0.4557054676957195,0.1233947781159991,-0.20525072003453318,-1776,-2305,-2356,3832,311,100685
11:53:25.312,19284,1003.90625,-0.9765625,-87.890625,0.42394047530942264,0.1466076571675237,-0.17592918860102844,-1773,-2305,-2362,3832,311,100685
11:53:25.323,19285,998.046875,-52.734375,-83.0078125,0.48747046008201633,0.1307251609743753,-0.15393804002589986,-1769,-2305,-2364,3832,311,100685
11:53:25.343,19286,1000.0,-90.8203125,-111.328125,0.36896260387160124,0.1038470904936626,-0.1429424657383356,-1775,-2308,-2363,3832,311,100685
11:53:25.363,19287,1000.9765625,-77.1484375,-123.046875,0.23701571242082997,0.1233947781159991,-0.12461650859239513,-1771,-2298,-2361,3832,311,100685
11:53:25.383,19288,1006.8359375,-53.7109375,-120.1171875,0.11728612573401895,0.11850785621041499,-0.07330382858376185,-1768,-2301,-2370,3832,311,100685
11:53:25.393,19289,1024.4140625,-36.1328125,-120.1171875,0.08918632477691024,0.11850785621041499,-0.0476474885794452,-1769,-2304,-2359,3832,311,100685
11:53:25.414,19290,1031.25,-15.625,-107.421875,0.12217304763960309,0.14049900478554353,-0.05619960191421742,-1770,-2308,-2365,3832,311,100685
11:53:25.434,19291,1038.0859375,-43.9453125,-97.65625,0.1869247628885927,0.1392772743091475,-0.051312680008633295,-1766,-2307,-2377,3832,311,100685
11:53:25.454,19292,1037.109375,-29.296875,-116.2109375,0.16982053621904827,0.09773843811168245,-0.009773843811168246,-1768,-2303,-2383,3832,311,100685
11:53:25.474,19293,1025.390625,-0.0,-110.3515625,0.04276056667386108,0.09651670763528641,-0.003665191429188092,-1770,-2308,-2373,3832,311,100685
11:53:25.484,19294,1024.4140625,-10.7421875,-111.328125,-0.025656340004316647,0.08796459430051422,0.006108652381980153,-1771,-2302,-2374,3832,311,100685
11:53:25.525,19295,1020.5078125,-26.3671875,-133.7890625,0.0,0.007330382858376184,0.01832595714594046,-1763,-2302,-2369,3832,311,100685
11:53:25.545,19296,1021.484375,-41.9921875,-168.9453125,-0.02809980095710871,-0.03543018381548489,0.0158824961931484,-1768,-2305,-2372,3832,311,100685
11:53:25.576,19297,1021.484375,-39.0625,-166.9921875,-0.06841690667817772,-0.07086036763096978,0.012217304763960306,-1771,-2306,-2375,3832,311,100685
11:53:25.596,19298,1035.15625,-14.6484375,-145.5078125,-0.048869219055841226,-0.0830776723949301,0.004886921905584123,-1771,-2307,-2393,3832,311,100685
11:53:25.616,19299,1037.109375,10.7421875,-97.65625,-0.04520402762665313,-0.08796459430051422,-0.008552113334772215,-1772,-2306,-2375,3832,311,100685
11:53:25.636,19300,1025.390625,29.296875,-57.6171875,0.05742133239061345,-0.07330382858376185,-0.020769418098732523,-1770,-2305,-2369,3832,311,100685
11:53:25.657,19301,1017.578125,0.9765625,-43.9453125,0.09285151620609834,-0.05742133239061345,-0.02809980095710871,-1770,-2305,-2379,3832,311,100685
11:53:25.667,19302,1012.6953125,-55.6640625,-69.3359375,0.07574728953655392,-0.05375614096142535,-0.04031710572106901,-1767,-2304,-2377,3832,311,100685
11:53:25.687,19303,997.0703125,-51.7578125,-103.515625,-0.039095375244672985,-0.03787364476827696,0.0012217304763960308,-1773,-2305,-2369,3832,311,100685
11:53:25.708,19304,999.0234375,-6.8359375,-123.046875,-0.10995574287564278,-0.04276056667386108,0.013439035240356337,-1770,-2306,-2372,3832,311,100685
11:53:25.728,19305,1006.8359375,6.8359375,-117.1875,-0.09285151620609834,-0.01832595714594046,0.03420845333908886,-1769,-2305,-2372,3832,311,100685
11:53:25.738,19306,1012.6953125,18.5546875,-100.5859375,0.012217304763960306,-0.003665191429188092,0.01832595714594046,-1771,-2304,-2368,3832,311,100685
11:53:25.758,19307,1015.625,-3.90625,-95.703125,0.0635299847725936,0.009773843811168246,-0.0012217304763960308,-1770,-2303,-2363,3832,311,100685
11:53:25.779,19308,1011.71875,-13.671875,-94.7265625,0.04153883619746505,-0.0012217304763960308,0.013439035240356337,-1771,-2306,-2373,3832,311,100685
11:53:25.799,19309,1020.5078125,-25.390625,-113.28125,0.0158824961931484,-0.013439035240356337,0.020769418098732523,-1763,-2310,-2364,3832,311,100685
11:53:25.819,19310,1013.671875,-22.4609375,-123.046875,0.03298672286269283,-0.004886921905584123,0.004886921905584123,-1774,-2309,-2364,3832,311,100685
11:53:25.829,19311,1029.296875,-2.9296875,-130.859375,0.05375614096142535,0.0,-0.013439035240356337,-1754,-2304,-2374,3832,311,100685
11:53:25.849,19312,1028.3203125,-5.859375,-97.65625,0.0024434609527920616,0.009773843811168246,-0.0024434609527920616,-1770,-2307,-2366,3832,311,100685
11:53:25.869,19313,1009.765625,-13.671875,-106.4453125,0.0635299847725936,-0.006108652381980153,-0.006108652381980153,-1761,-2302,-2379,3832,311,100685
11:53:25.890,19314,1013.671875,-27.34375,-105.46875,0.04153883619746505,-0.0012217304763960308,-0.01710422666954443,-1775,-2312,-2372,3832,311,100685
11:53:25.910,19315,1004.8828125,-29.296875,-112.3046875,0.008552113334772215,-0.0012217304763960308,-0.014660765716752368,-1773,-2313,-2377,3832,311,100685
11:53:25.920,19316,1005.859375,-13.671875,-111.328125,0.014660765716752368,-0.006108652381980153,-0.010995574287564277,-1773,-2318,-2378,3832,311,100685
11:53:25.940,19317,1015.625,-0.9765625,-105.46875,-0.004886921905584123,-0.02809980095710871,-0.025656340004316647,-1773,-2315,-2377,3832,311,100685
11:53:25.961,19318,1025.390625,-13.671875,-101.5625,0.0024434609527920616,-0.0158824961931484,-0.01710422666954443,-1772,-2314,-2369,3832,311,100685
11:53:25.981,19319,1022.4609375,-28.3203125,-112.3046875,0.0024434609527920616,-0.03420845333908886,-0.020769418098732523,-1776,-2315,-2379,3832,311,100685
11:53:26.2,19320,1016.6015625,-12.6953125,-105.46875,-0.05009094953223726,-0.01710422666954443,-0.01710422666954443,-1774,-2317,-2374,3832,311,100685
11:53:26.12,19321,1012.6953125,-11.71875,-110.3515625,-0.05009094953223726,-0.019547687622336492,-0.012217304763960306,-1772,-2313,-2384,3832,311,100685
11:53:26.32,19322,1017.578125,-5.859375,-116.2109375,-0.020769418098732523,-0.04031710572106901,-0.021991148575128554,-1773,-2319,-2375,3832,311,100685
11:53:26.53,19323,1026.3671875,-0.0,-109.375,-0.026878070480712675,-0.009773843811168246,-0.023212879051524585,-1762,-2304,-2371,3832,311,100685
11:53:26.73,19324,1023.4375,10.7421875,-110.3515625,0.007330382858376184,-0.010995574287564277,-0.0158824961931484,-1777,-2310,-2372,3832,311,100685
11:53:26.144,19325,1019.53125,-12.6953125,-104.4921875,-0.003665191429188092,-0.013439035240356337,-0.013439035240356337,-1774,-2309,-2379,3832,311,100685
11:53:26.165,19326,1016.6015625,-25.390625,-115.234375,0.01832595714594046,-0.03665191429188092,-0.01832595714594046,-1777,-2307,-2368,3832,311,100685
11:53:26.175,19327,1011.71875,-33.203125,-122.0703125,-0.023212879051524585,-0.025656340004316647,-0.01710422666954443,-1771,-2310,-2370,3826,311,100679
11:53:26.196,19328,1020.5078125,-0.9765625,-120.1171875,-0.026878070480712675,-0.010995574287564277,0.012217304763960306,-1776,-2307,-2383,3826,311,100679
11:53:26.216,19329,1017.578125,6.8359375,-103.515625,-0.08429940287132612,0.3066543495754037,0.008552113334772215,-1776,-2308,-2372,3826,311,100679
11:53:26.236,19330,1011.71875,3.90625,-115.234375,-0.013439035240356337,-0.003665191429188092,-0.0024434609527920616,-1773,-2304,-2380,3826,311,100679
11:53:26.257,19331,1018.5546875,-13.671875,-123.046875,0.021991148575128554,-0.012217304763960306,-0.007330382858376184,-1774,-2312,-2372,3826,311,100679
11:53:26.267,19332,1009.765625,-23.4375,-125.0,0.01832595714594046,-0.02809980095710871,-0.010995574287564277,-1779,-2304,-2376,3826,311,100679
11:53:26.287,19333,1018.5546875,-16.6015625,-119.140625,0.01710422666954443,-0.021991148575128554,0.0024434609527920616,-1781,-2306,-2372,3826,311,100679
11:53:26.307,19334,1012.6953125,10.7421875,-90.8203125,-0.024434609527920613,-0.024434609527920613,0.004886921905584123,-1774,-2310,-2377,3826,311,100679
11:53:26.328,19335,1012.6953125,-0.9765625,-103.515625,0.014660765716752368,0.0012217304763960308,-0.006108652381980153,-1774,-2313,-2364,3826,311,100679
11:53:26.348,19336,1012.6953125,-17.578125,-118.1640625,0.023212879051524585,-0.020769418098732523,-0.003665191429188092,-1772,-2311,-2367,3826,311,100679
11:53:26.358,19337,1008.7890625,-28.3203125,-118.1640625,0.003665191429188092,0.004886921905584123,-0.023212879051524585,-1770,-2307,-2370,3826,311,100679
11:53:26.379,19338,1014.6484375,-9.765625,-122.0703125,-0.0012217304763960308,-0.010995574287564277,0.0,-1776,-2311,-2383,3826,311,100679
11:53:26.399,19339,1024.4140625,4.8828125,-112.3046875,-0.019547687622336492,0.008552113334772215,-0.020769418098732523,-1772,-2308,-2376,3826,311,100679
11:53:26.419,19340,1023.4375,1.953125,-100.5859375,-0.0024434609527920616,0.004886921905584123,-0.0158824961931484,-1777,-2310,-2366,3826,311,100679
11:53:26.429,19341,1017.578125,-20.5078125,-110.3515625,0.013439035240356337,-0.0024434609527920616,-0.012217304763960306,-1754,-2301,-2368,3826,311,100679
11:53:26.450,19342,1008.7890625,-25.390625,-127.9296875,0.008552113334772215,-0.013439035240356337,-0.0158824961931484,-1775,-2310,-2365,3826,311,100679
11:53:26.470,19343,1014.6484375,-18.5546875,-123.046875,-0.007330382858376184,-0.0012217304763960308,-0.010995574287564277,-1775,-2304,-2374,3826,311,100679
11:53:26.491,19344,1017.578125,5.859375,-112.3046875,0.0012217304763960308,0.007330382858376184,-0.0317649923862968,-1773,-2307,-2378,3826,311,100679
11:53:26.511,19345,1019.53125,-4.8828125,-100.5859375,-0.012217304763960306,0.004886921905584123,-0.023212879051524585,-1779,-2309,-2374,3826,311,100679
11:53:26.521,19346,1010.7421875,-14.6484375,-111.328125,-0.004886921905584123,-0.014660765716752368,-0.010995574287564277,-1777,-2306,-2372,3826,311,100679
11:53:26.561,19347,1004.8828125,-24.4140625,-119.140625,-0.014660765716752368,-0.019547687622336492,-0.004886921905584123,-1781,-2313,-2371,3826,311,100679
11:53:26.582,19348,1004.8828125,-20.5078125,-125.9765625,0.008552113334772215,-0.020769418098732523,-0.009773843811168246,-1771,-2310,-2379,3826,311,100679
11:53:26.602,19349,1016.6015625,-6.8359375,-114.2578125,-0.004886921905584123,-0.01832595714594046,-0.0024434609527920616,-1778,-2312,-2377,3826,311,100679
11:53:26.612,19350,1014.6484375,-13.671875,-113.28125,-0.014660765716752368,-0.024434609527920613,0.0,-1778,-2308,-2377,3826,311,100679
11:53:26.632,19351,1017.578125,-17.578125,-110.3515625,-0.029321531433504737,-0.023212879051524585,-0.003665191429188092,-1772,-2303,-2371,3826,311,100679
11:53:26.653,19352,1022.4609375,-16.6015625,-106.4453125,-0.03787364476827696,-0.0158824961931484,0.0,-1776,-2306,-2356,3826,311,100679
11:53:26.673,19353,1009.765625,-1.953125,-119.140625,-0.01832595714594046,-0.021991148575128554,0.0012217304763960308,-1774,-2304,-2364,3826,311,100679
11:53:26.683,19354,1005.859375,-6.8359375,-123.046875,-0.007330382858376184,-0.0158824961931484,0.004886921905584123,-1774,-2309,-2367,3826,311,100679
11:53:26.703,19355,1013.671875,-8.7890625,-116.2109375,-0.003665191429188092,-0.010995574287564277,-0.0024434609527920616,-1769,-2310,-2372,3826,311,100679
11:53:26.723,19356,1007.8125,-16.6015625,-116.2109375,-0.020769418098732523,-0.007330382858376184,-0.009773843811168246,-1771,-2310,-2367,3826,311,100679
11:53:26.744,19357,1013.671875,-6.8359375,-115.234375,-0.024434609527920613,-0.0012217304763960308,0.0024434609527920616,-1775,-2305,-2369,3826,311,100679
11:53:26.764,19358,1014.6484375,-5.859375,-124.0234375,-0.007330382858376184,-0.0024434609527920616,-0.009773843811168246,-1764,-2309,-2371,3826,311,100679
11:53:26.774,19359,1018.5546875,-7.8125,-126.953125,-0.014660765716752368,-0.004886921905584123,0.0024434609527920616,-1772,-2315,-2373,3826,311,100679
11:53:26.794,19360,1022.4609375,0.9765625,-104.4921875,-0.03054326190990077,0.0158824961931484,-0.026878070480712675,-1775,-2308,-2367,3826,311,100679
11:53:26.855,19361,1012.6953125,-7.8125,-115.234375,-0.021991148575128554,-0.0024434609527920616,-0.007330382858376184,-1776,-2308,-2368,3826,311,100679
11:53:26.865,19362,1018.5546875,-9.765625,-128.90625,-0.010995574287564277,0.0,-0.01832595714594046,-1761,-2304,-2373,3826,311,100679
11:53:26.886,19363,1021.484375,2.9296875,-120.1171875,0.009773843811168246,0.0024434609527920616,0.003665191429188092,-1775,-2311,-2367,3826,311,100679
11:53:26.906,19364,1010.7421875,-7.8125,-116.2109375,0.021991148575128554,0.0158824961931484,-0.0012217304763960308,-1777,-2307,-2364,3826,311,100679
11:53:26.926,19365,1010.7421875,-0.0,-121.09375,0.03298672286269283,0.0024434609527920616,-0.006108652381980153,-1769,-2302,-2367,3826,311,100679
11:53:26.947,19366,1016.6015625,-12.6953125,-112.3046875,-0.012217304763960306,-0.006108652381980153,-0.012217304763960306,-1774,-2303,-2380,3826,311,100679
11:53:26.957,19367,1008.7890625,-10.7421875,-109.375,-0.008552113334772215,0.010995574287564277,-0.019547687622336492,-1771,-2310,-2382,3826,311,100679
11:53:26.977,19368,1013.671875,-13.671875,-118.1640625,-0.010995574287564277,0.012217304763960306,-0.029321531433504737,-1774,-2307,-2371,3826,311,100679
11:53:26.997,19369,1008.7890625,-12.6953125,-120.1171875,-0.009773843811168246,0.012217304763960306,-0.03054326190990077,-1761,-2302,-2377,3826,311,100679
11:53:27.18,19370,1008.7890625,1.953125,-124.0234375,-0.0024434609527920616,-0.008552113334772215,-0.02809980095710871,-1771,-2304,-2379,3826,311,100679
11:53:27.39,19371,1013.671875,-3.90625,-109.375,-0.01710422666954443,-0.003665191429188092,-0.023212879051524585,-1772,-2302,-2367,3826,311,100679
11:53:27.49,19372,1015.625,-0.9765625,-111.328125,-0.006108652381980153,-0.004886921905584123,-0.014660765716752368,-1770,-2301,-2367,3826,311,100679
11:53:27.69,19373,1021.484375,1.953125,-101.5625,-0.013439035240356337,0.0012217304763960308,-0.026878070480712675,-1773,-2300,-2365,3826,311,100679
11:53:27.89,19374,1008.7890625,-0.0,-111.328125,0.019547687622336492,0.0,-0.019547687622336492,-1765,-2295,-2372,3826,311,100679
11:53:27.110,19375,1007.8125,-19.53125,-111.328125,-0.012217304763960306,0.010995574287564277,-0.023212879051524585,-1764,-2294,-2363,3826,311,100679
11:53:27.120,19376,1009.765625,-28.3203125,-130.859375,-0.01832595714594046,0.007330382858376184,-0.0158824961931484,-1776,-2296,-2375,3826,311,100679
11:53:27.140,19377,1016.6015625,-16.6015625,-115.234375,-0.05619960191421742,0.004886921905584123,-0.006108652381980153,-1773,-2300,-2357,3820,311,100681
11:53:27.160,19378,1017.578125,-0.0,-115.234375,-0.06230825429619757,0.0024434609527920616,-0.004886921905584123,-1773,-2297,-2374,3820,311,100681
11:53:27.181,19379,1019.53125,0.9765625,-106.4453125,-0.039095375244672985,0.01710422666954443,-0.003665191429188092,-1762,-2300,-2363,3820,311,100681
11:53:27.201,19380,1026.3671875,-14.6484375,-110.3515625,-0.0012217304763960308,-0.004886921905584123,-0.009773843811168246,-1769,-2306,-2377,3820,311,100681
11:53:27.211,19381,1020.5078125,-10.7421875,-122.0703125,-0.013439035240356337,0.009773843811168246,0.0024434609527920616,-1773,-2302,-2367,3820,311,100681
11:53:27.232,19382,1013.671875,-6.8359375,-114.2578125,-0.07330382858376185,0.007330382858376184,0.0,-1779,-2305,-2367,3820,311,100681
11:53:27.252,19383,1010.7421875,5.859375,-109.375,-0.048869219055841226,0.003665191429188092,0.004886921905584123,-1778,-2299,-2374,3820,311,100681
11:53:27.272,19384,1021.484375,-6.8359375,-112.3046875,-0.024434609527920613,0.0024434609527920616,-0.0012217304763960308,-1774,-2303,-2357,3820,311,100681
11:53:27.292,19385,1011.71875,-1.953125,-108.3984375,-0.021991148575128554,0.0,-0.0024434609527920616,-1779,-2298,-2375,3820,311,100681
11:53:27.303,19386,1010.7421875,-3.90625,-113.28125,-0.05009094953223726,0.006108652381980153,0.010995574287564277,-1769,-2301,-2371,3820,311,100681
11:53:27.323,19387,1023.4375,-9.765625,-125.0,-0.051312680008633295,-0.0024434609527920616,0.003665191429188092,-1778,-2301,-2356,3820,311,100681
11:53:27.343,19388,1025.390625,8.7890625,-112.3046875,-0.048869219055841226,0.003665191429188092,0.003665191429188092,-1779,-2303,-2368,3820,311,100681
11:53:27.363,19389,1024.4140625,16.6015625,-115.234375,-0.02809980095710871,0.0158824961931484,0.0,-1773,-2303,-2370,3820,311,100681
11:53:27.384,19390,1011.71875,6.8359375,-112.3046875,-0.03054326190990077,0.007330382858376184,0.008552113334772215,-1767,-2299,-2367,3820,311,100681
11:53:27.394,19391,1018.5546875,-8.7890625,-125.9765625,0.007330382858376184,-0.010995574287564277,0.009773843811168246,-1775,-2296,-2373,3820,311,100681
11:53:27.415,19392,1028.3203125,-0.9765625,-120.1171875,-0.029321531433504737,-0.019547687622336492,0.0012217304763960308,-1775,-2301,-2368,3820,311,100681
11:53:27.435,19393,1025.390625,3.90625,-128.90625,-0.04520402762665313,-0.0012217304763960308,0.006108652381980153,-1778,-2305,-2374,3820,311,100681
11:53:27.456,19394,1026.3671875,10.7421875,-125.9765625,-0.0024434609527920616,-0.0024434609527920616,0.021991148575128554,-1775,-2300,-2360,3820,311,100681
11:53:27.466,19395,1024.4140625,1.953125,-126.953125,0.029321531433504737,-0.0317649923862968,-0.004886921905584123,-1774,-2303,-2357,3820,311,100681
11:53:27.486,19396,1015.625,12.6953125,-112.3046875,0.026878070480712675,-0.039095375244672985,-0.003665191429188092,-1774,-2300,-2362,3820,311,100681
11:53:27.507,19397,1010.7421875,8.7890625,-110.3515625,0.03054326190990077,-0.03298672286269283,-0.021991148575128554,-1768,-2294,-2360,3820,311,100681
11:53:27.527,19398,1023.4375,4.8828125,-114.2578125,0.03665191429188092,-0.04153883619746505,-0.01710422666954443,-1772,-2301,-2363,3820,311,100681
11:53:27.547,19399,1020.5078125,-12.6953125,-113.28125,0.029321531433504737,-0.04520402762665313,-0.03543018381548489,-1774,-2299,-2365,3820,311,100681
11:53:27.558,19400,1008.7890625,-10.7421875,-132.8125,0.039095375244672985,-0.052534410485029326,-0.04276056667386108,-1765,-2297,-2360,3820,311,100681
11:53:27.578,19401,999.0234375,8.7890625,-141.6015625,0.0317649923862968,-0.04520402762665313,-0.048869219055841226,-1774,-2306,-2372,3820,311,100681
11:53:27.598,19402,1009.765625,4.8828125,-118.1640625,0.0158824961931484,-0.03420845333908886,-0.0317649923862968,-1775,-2301,-2371,3820,311,100681
11:53:27.619,19403,1032.2265625,-4.8828125,-111.328125,0.029321531433504737,-0.05009094953223726,-0.0476474885794452,-1774,-2302,-2371,3820,311,100681
11:53:27.639,19404,1036.1328125,-7.8125,-125.9765625,0.06230825429619757,-0.05497787143782139,-0.05742133239061345,-1770,-2301,-2361,3820,311,100681
11:53:27.649,19405,1025.390625,8.7890625,-122.0703125,0.05619960191421742,-0.06475171524898964,-0.039095375244672985,-1774,-2303,-2369,3820,311,100681
11:53:27.670,19406,1007.8125,5.859375,-124.0234375,0.0952949771588904,-0.058643062867009474,-0.03420845333908886,-1774,-2303,-2369,3820,311,100681
11:53:27.690,19407,1001.953125,4.8828125,-121.09375,0.13194689145077132,-0.0635299847725936,-0.03298672286269283,-1760,-2297,-2372,3820,311,100681
11:53:27.761,19408,1003.90625,0.9765625,-116.2109375,0.12583823906879116,-0.0635299847725936,-0.03787364476827696,-1772,-2310,-2374,3820,311,100681
11:53:27.782,19409,1004.8828125,-24.4140625,-113.28125,0.11972958668681102,-0.05986479334340551,-0.03665191429188092,-1770,-2306,-2356,3820,311,100681
11:53:27.802,19410,998.046875,-20.5078125,-110.3515625,0.10629055144645469,-0.06108652381980154,-0.05009094953223726,-1772,-2306,-2371,3820,311,100681
11:53:27.812,19411,1000.9765625,-29.296875,-114.2578125,0.06108652381980154,-0.023212879051524585,-0.06841690667817772,-1775,-2301,-2367,3820,311,100681
11:53:27.833,19412,1003.90625,-30.2734375,-119.140625,0.03543018381548489,-0.0317649923862968,-0.0671951762017817,-1777,-2307,-2377,3820,311,100681
11:53:27.854,19413,1000.9765625,-23.4375,-124.0234375,0.010995574287564277,-0.0317649923862968,-0.08552113334772216,-1774,-2304,-2357,3820,311,100681
11:53:27.874,19414,1000.0,-32.2265625,-118.1640625,-0.04520402762665313,-0.006108652381980153,-0.07574728953655392,-1761,-2296,-2362,3820,311,100681
11:53:27.885,19415,1010.7421875,-29.296875,-112.3046875,-0.0635299847725936,0.008552113334772215,-0.07452555906015788,-1774,-2299,-2371,3820,311,100681
11:53:27.966,19416,1024.4140625,-41.015625,-114.2578125,-0.07330382858376185,0.008552113334772215,-0.07452555906015788,-1776,-2305,-2361,3820,311,100681
11:53:27.976,19417,1032.2265625,-45.8984375,-127.9296875,-0.1307251609743753,0.0158824961931484,-0.04398229715025711,-1776,-2297,-2362,3820,311,100681
11:53:27.996,19418,1025.390625,-18.5546875,-130.859375,-0.21991148575128555,0.004886921905584123,-0.007330382858376184,-1763,-2297,-2358,3820,311,100681
11:53:28.17,19419,1005.859375,1.953125,-125.9765625,-0.23945917337362205,0.021991148575128554,0.006108652381980153,-1773,-2299,-2350,3820,311,100681
11:53:28.37,19420,1007.8125,-9.765625,-114.2578125,-0.23212879051524585,0.025656340004316647,0.007330382858376184,-1772,-2297,-2354,3820,311,100681
11:53:28.47,19421,1015.625,-16.6015625,-107.421875,-0.23212879051524585,0.014660765716752368,0.021991148575128554,-1772,-2296,-2364,3820,311,100681
11:53:28.68,19422,1009.765625,-14.6484375,-97.65625,-0.2736676267127109,-0.007330382858376184,0.04398229715025711,-1773,-2301,-2360,3820,311,100681
11:53:28.88,19423,999.0234375,-7.8125,-108.3984375,-0.32498030672134415,0.006108652381980153,0.058643062867009474,-1775,-2297,-2353,3820,311,100681
11:53:28.109,19424,1012.6953125,1.953125,-139.6484375,-0.33108895910332437,-0.0012217304763960308,0.06230825429619757,-1774,-2299,-2359,3820,311,100681
11:53:28.129,19425,1018.5546875,2.9296875,-127.9296875,-0.35796702958403703,0.019547687622336492,0.0830776723949301,-1757,-2286,-2352,3820,311,100681
11:53:28.139,19426,1022.4609375,-0.0,-129.8828125,-0.35552356863124496,0.0158824961931484,0.08552113334772216,-1774,-2291,-2360,3820,311,100681
11:53:28.160,19427,1018.5546875,16.6015625,-132.8125,-0.3481931857728688,0.009773843811168246,0.10262536001726659,-1777,-2297,-2358,3826,311,100679
11:53:28.180,19428,1022.4609375,19.53125,-123.046875,-0.3262020371977402,0.009773843811168246,0.10506882097005865,-1762,-2294,-2358,3826,311,100679
11:53:28.200,19429,1027.34375,30.2734375,-121.09375,-0.31154127148098787,0.012217304763960306,0.0952949771588904,-1771,-2294,-2364,3826,311,100679
11:53:28.211,19430,1022.4609375,41.9921875,-130.859375,-0.27977627909469105,-0.007330382858376184,0.09773843811168245,-1776,-2295,-2362,3826,311,100679
11:53:28.231,19431,1020.5078125,40.0390625,-134.765625,-0.26389378290154264,-0.003665191429188092,0.11850785621041499,-1777,-2295,-2358,3826,311,100679
11:53:28.251,19432,1015.625,35.15625,-135.7421875,-0.2467895562319982,-0.0012217304763960308,0.09773843811168245,-1778,-2293,-2356,3826,311,100679
11:53:28.271,19433,1019.53125,29.296875,-129.8828125,-0.2223549467040776,-0.014660765716752368,0.08063421144213802,-1775,-2293,-2350,3826,311,100679
11:53:28.291,19434,1008.7890625,26.3671875,-130.859375,-0.20158552860534507,-0.021991148575128554,0.08185594191853407,-1775,-2296,-2352,3826,311,100679
11:53:28.302,19435,1017.578125,24.4140625,-134.765625,-0.2138028333693054,-0.020769418098732523,0.05497787143782139,-1759,-2291,-2349,3826,311,100679
11:53:28.322,19436,1017.578125,28.3203125,-136.71875,-0.1869247628885927,-0.02809980095710871,0.03665191429188092,-1776,-2294,-2360,3826,311,100679
11:53:28.343,19437,1014.6484375,22.4609375,-136.71875,-0.16371188383706814,-0.03543018381548489,0.03420845333908886,-1773,-2293,-2351,3826,311,100679
11:53:28.363,19438,1018.5546875,19.53125,-141.6015625,-0.14905111812031577,-0.029321531433504737,0.04031710572106901,-1766,-2295,-2359,3826,311,100679
11:53:28.383,19439,1013.671875,27.34375,-137.6953125,-0.16249015336067207,-0.023212879051524585,0.02809980095710871,-1759,-2291,-2347,3826,311,100679
11:53:28.454,19440,1016.6015625,35.15625,-131.8359375,-0.12950343049797927,-0.01832595714594046,0.008552113334772215,-1771,-2293,-2346,3826,311,100679
11:53:28.474,19441,1007.8125,33.203125,-136.71875,-0.0989601685880785,-0.01710422666954443,0.0012217304763960308,-1771,-2292,-2356,3826,311,100679
11:53:28.525,19442,1009.765625,30.2734375,-125.0,-0.08185594191853407,-0.003665191429188092,-0.003665191429188092,-1756,-2287,-2352,3826,311,100679
11:53:28.546,19443,1009.765625,18.5546875,-130.859375,-0.07208209810736582,-0.0012217304763960308,-0.004886921905584123,-1779,-2293,-2349,3826,311,100679
11:53:28.556,19444,1009.765625,1.953125,-131.8359375,-0.07086036763096978,0.006108652381980153,-0.01832595714594046,-1775,-2289,-2345,3826,311,100679
11:53:28.576,19445,1008.7890625,5.859375,-134.765625,-0.09651670763528641,-0.006108652381980153,-0.013439035240356337,-1772,-2290,-2350,3826,311,100679
11:53:28.597,19446,1003.90625,15.625,-136.71875,-0.12828170002158323,0.003665191429188092,-0.025656340004316647,-1770,-2290,-2349,3826,311,100679
11:53:28.617,19447,998.046875,45.8984375,-126.953125,-0.10018189906447451,0.020769418098732523,-0.01710422666954443,-1774,-2293,-2349,3826,311,100679
11:53:28.638,19448,993.1640625,41.9921875,-136.71875,-0.048869219055841226,0.025656340004316647,-0.003665191429188092,-1777,-2284,-2347,3826,311,100679
11:53:28.648,19449,991.2109375,31.25,-140.625,-0.014660765716752368,0.025656340004316647,-0.008552113334772215,-1772,-2283,-2357,3826,311,100679
11:53:28.669,19450,1008.7890625,22.4609375,-140.625,0.008552113334772215,0.048869219055841226,-0.009773843811168246,-1773,-2287,-2349,3826,311,100679
11:53:28.689,19451,1016.6015625,44.921875,-111.328125,0.007330382858376184,0.04276056667386108,0.006108652381980153,-1774,-2292,-2340,3826,311,100679
11:53:28.740,19452,1031.25,52.734375,-116.2109375,0.05742133239061345,0.029321531433504737,0.003665191429188092,-1775,-2291,-2352,3826,311,100679
11:53:28.761,19453,1036.1328125,59.5703125,-124.0234375,0.12461650859239513,0.04276056667386108,-0.0012217304763960308,-1747,-2283,-2349,3826,311,100679
11:53:28.781,19454,1026.3671875,42.96875,-136.71875,0.15638150097869194,0.04642575810304917,0.0,-1774,-2288,-2361,3826,311,100679
11:53:28.801,19455,1019.53125,28.3203125,-145.5078125,0.1893682238413848,0.058643062867009474,0.0024434609527920616,-1777,-2289,-2352,3826,311,100679
11:53:28.812,19456,1011.71875,51.7578125,-142.578125,0.2675589743307307,0.05009094953223726,0.023212879051524585,-1769,-2292,-2352,3826,311,100679
11:53:28.832,19457,998.046875,56.640625,-110.3515625,0.29810223624063154,0.03665191429188092,0.03665191429188092,-1776,-2293,-2351,3826,311,100679
11:53:28.853,19458,1013.671875,84.9609375,-100.5859375,0.3530801076784529,0.019547687622336492,0.014660765716752368,-1773,-2296,-2351,3826,311,100679
11:53:28.873,19459,1049.8046875,71.2890625,-99.609375,0.39339721339952194,0.03298672286269283,-0.009773843811168246,-1771,-2297,-2351,3826,311,100679
11:53:28.883,19460,1041.015625,47.8515625,-97.65625,0.4825835381764321,-0.03298672286269283,0.007330382858376184,-1775,-2297,-2349,3826,311,100679
11:53:28.903,19461,1031.25,12.6953125,-107.421875,0.5400048705670456,-0.052534410485029326,-0.0158824961931484,-1774,-2299,-2366,3826,311,100679
11:53:28.924,19462,1038.0859375,-16.6015625,-115.234375,0.5461135229490258,-0.039095375244672985,-0.051312680008633295,-1772,-2297,-2353,3826,311,100679
11:53:28.944,19463,1044.921875,-25.390625,-123.046875,0.5522221753310059,-0.052534410485029326,-0.0476474885794452,-1748,-2294,-2351,3826,311,100679
11:53:28.965,19464,1041.015625,-34.1796875,-115.234375,0.5448917924726296,-0.09040805525330627,-0.08063421144213802,-1775,-2301,-2364,3826,311,100679
11:53:28.975,19465,1037.109375,-31.25,-105.46875,0.4801400772236401,-0.08429940287132612,-0.0952949771588904,-1775,-2299,-2358,3826,311,100679
11:53:29.15,19466,1026.3671875,-41.015625,-118.1640625,0.4703662334124718,-0.07330382858376185,-0.12583823906879116,-1773,-2302,-2352,3826,311,100679
11:53:29.36,19467,1020.5078125,-68.359375,-116.2109375,0.4227187448330266,-0.0671951762017817,-0.15638150097869194,-1776,-2302,-2360,3826,311,100679
11:53:29.56,19468,1010.7421875,-56.640625,-125.9765625,0.37018433434799736,-0.05619960191421742,-0.14416419621473164,-1772,-2303,-2357,3826,311,100679
11:53:29.67,19469,1002.9296875,-25.390625,-125.9765625,0.30543261909900765,-0.04642575810304917,-0.14049900478554353,-1773,-2310,-2348,3826,311,100679
11:53:29.87,19470,999.0234375,-24.4140625,-125.9765625,0.31154127148098787,-0.05375614096142535,-0.13805554383275148,-1762,-2302,-2361,3826,311,100679
11:53:29.108,19471,1004.8828125,-24.4140625,-124.0234375,0.32131511529215606,-0.05742133239061345,-0.14905111812031577,-1774,-2308,-2353,3826,311,100679
11:53:29.128,19472,1011.71875,-40.0390625,-129.8828125,0.27611108766550296,-0.05497787143782139,-0.1502728485967118,-1772,-2312,-2345,3826,311,100679
11:53:29.138,19473,1014.6484375,-38.0859375,-131.8359375,0.2516764781375823,-0.051312680008633295,-0.12217304763960309,-1771,-2298,-2354,3826,311,100679
11:53:29.158,19474,1016.6015625,-31.25,-134.765625,0.22846359908605776,-0.051312680008633295,-0.11362093430483088,-1764,-2303,-2361,3826,311,100679
11:53:29.179,19475,1011.71875,-11.71875,-116.2109375,0.17959438003021652,-0.03665191429188092,-0.11239920382843484,-1775,-2306,-2356,3826,311,100679
11:53:29.199,19476,1028.3203125,-32.2265625,-123.046875,0.1661553447898602,-0.029321531433504737,-0.10995574287564278,-1774,-2307,-2351,3826,311,100679
11:53:29.220,19477,1013.671875,-36.1328125,-136.71875,0.15271630954950383,-0.03054326190990077,-0.10629055144645469,-1775,-2303,-2358,3826,311,100683
11:53:29.230,19478,1004.8828125,-45.8984375,-148.4375,0.09162978572970232,-0.03420845333908886,-0.0867428638241182,-1772,-2301,-2360,3826,311,100683
11:53:29.250,19479,996.09375,-32.2265625,-137.6953125,0.04153883619746505,-0.01832595714594046,-0.06475171524898964,-1774,-2297,-2358,3826,311,100683
11:53:29.270,19480,991.2109375,-37.109375,-134.765625,0.01710422666954443,-0.020769418098732523,-0.03665191429188092,-1775,-2297,-2348,3826,311,100683
11:53:29.290,19481,998.046875,-41.015625,-144.53125,0.0012217304763960308,-0.029321531433504737,-0.04398229715025711,-1763,-2296,-2357,3826,311,100683
11:53:29.311,19482,1000.9765625,-46.875,-135.7421875,-0.04398229715025711,-0.013439035240356337,-0.03787364476827696,-1771,-2297,-2359,3826,311,100683
11:53:29.321,19483,998.046875,-52.734375,-148.4375,-0.10873401239924674,-0.008552113334772215,-0.03420845333908886,-1773,-2296,-2361,3826,311,100683
11:53:29.341,19484,996.09375,-40.0390625,-144.53125,-0.1893682238413848,0.006108652381980153,-0.02809980095710871,-1762,-2296,-2366,3826,311,100683
11:53:29.361,19485,996.09375,-39.0625,-136.71875,-0.22724186860966175,0.004886921905584123,-0.025656340004316647,-1769,-2302,-2357,3826,311,100683
11:53:29.382,19486,1003.90625,-26.3671875,-114.2578125,-0.2932153143350474,0.008552113334772215,-0.023212879051524585,-1771,-2294,-2358,3826,311,100683
11:53:29.402,19487,1003.90625,-30.2734375,-113.28125,-0.3445279943436807,-0.009773843811168246,-0.021991148575128554,-1769,-2294,-2361,3826,311,100683
11:53:29.412,19488,994.140625,-22.4609375,-119.140625,-0.3787364476827696,-0.03298672286269283,-0.010995574287564277,-1768,-2288,-2359,3826,311,100683
11:53:29.433,19489,1003.90625,-0.9765625,-130.859375,-0.4214970143566306,-0.04031710572106901,0.0,-1770,-2288,-2358,3826,311,100683
11:53:29.453,19490,1001.953125,16.6015625,-132.8125,-0.42638393626221477,-0.051312680008633295,0.01832595714594046,-1768,-2293,-2361,3826,311,100683
11:53:29.473,19491,1004.8828125,19.53125,-131.8359375,-0.395840674352314,-0.0635299847725936,0.0476474885794452,-1757,-2286,-2346,3826,311,100683
11:53:29.483,19492,1012.6953125,33.203125,-133.7890625,-0.3445279943436807,-0.0671951762017817,0.05742133239061345,-1768,-2285,-2348,3826,311,100683
11:53:29.504,19493,1018.5546875,49.8046875,-115.234375,-0.3286454981505323,-0.05619960191421742,0.07941248096574201,-1766,-2290,-2350,3826,311,100683
11:53:29.524,19494,1025.390625,45.8984375,-109.375,-0.3127630019573839,-0.0476474885794452,0.09040805525330627,-1769,-2292,-2361,3826,311,100683
11:53:29.544,19495,1019.53125,45.8984375,-117.1875,-0.24556782575560218,-0.07330382858376185,0.10018189906447451,-1764,-2293,-2349,3826,311,100683
11:53:29.565,19496,1026.3671875,51.7578125,-133.7890625,-0.2138028333693054,-0.04398229715025711,0.09651670763528641,-1773,-2295,-2348,3826,311,100683
11:53:29.575,19497,1024.4140625,50.78125,-123.046875,-0.2138028333693054,-0.021991148575128554,0.10995574287564278,-1772,-2291,-2349,3826,311,100683
11:53:29.595,19498,1023.4375,35.15625,-131.8359375,-0.14905111812031577,-0.021991148575128554,0.11362093430483088,-1764,-2285,-2344,3826,311,100683
11:53:29.616,19499,1001.953125,29.296875,-132.8125,-0.1343903524035634,-0.014660765716752368,0.08796459430051422,-1769,-2290,-2345,3826,311,100683
11:53:29.636,19500,991.2109375,18.5546875,-132.8125,-0.1392772743091475,0.021991148575128554,0.09040805525330627,-1771,-2292,-2349,3826,311,100683
11:53:29.657,19501,989.2578125,9.765625,-131.8359375,-0.16737707526625623,0.02809980095710871,0.0671951762017817,-1769,-2292,-2338,3826,311,100683
11:53:29.667,19502,993.1640625,18.5546875,-123.046875,-0.197920337176157,0.02809980095710871,0.04398229715025711,-1743,-2282,-2346,3826,311,100683
11:53:29.687,19503,999.0234375,25.390625,-129.8828125,-0.18325957145940464,0.04398229715025711,0.023212879051524585,-1766,-2286,-2352,3826,311,100683
11:53:29.707,19504,993.1640625,22.4609375,-130.859375,-0.19303341527057283,0.06597344572538566,0.003665191429188092,-1767,-2290,-2348,3826,311,100683
11:53:29.728,19505,1020.5078125,31.25,-137.6953125,-0.2186897552748895,0.08429940287132612,-0.006108652381980153,-1766,-2290,-2348,3826,311,100683
11:53:29.738,19506,1029.296875,32.2265625,-134.765625,-0.2101376419401173,0.08429940287132612,-0.025656340004316647,-1767,-2288,-2345,3826,311,100683
11:53:29.779,19507,1033.203125,29.296875,-139.6484375,-0.17226399717184035,0.09162978572970232,-0.051312680008633295,-1769,-2288,-2350,3826,311,100683
11:53:29.799,19508,1035.15625,36.1328125,-151.3671875,-0.12950343049797927,0.09773843811168245,-0.04153883619746505,-1774,-2287,-2349,3826,311,100683
11:53:29.819,19509,1026.3671875,74.21875,-146.484375,-0.0952949771588904,0.09407324668249437,-0.03787364476827696,-1774,-2285,-2357,3826,311,100683
11:53:29.829,19510,1013.671875,91.796875,-137.6953125,-0.008552113334772215,0.09407324668249437,-0.02809980095710871,-1773,-2288,-2353,3826,311,100683
11:53:29.849,19511,1044.921875,62.5,-106.4453125,0.021991148575128554,0.0830776723949301,-0.051312680008633295,-1774,-2284,-2365,3826,311,100683
11:53:29.870,19512,1041.015625,16.6015625,-128.90625,0.0635299847725936,0.0671951762017817,-0.0635299847725936,-1766,-2281,-2352,3826,311,100683
11:53:29.890,19513,1023.4375,9.765625,-136.71875,0.021991148575128554,0.09285151620609834,-0.051312680008633295,-1772,-2285,-2361,3826,311,100683
11:53:29.910,19514,1024.4140625,-4.8828125,-146.484375,-0.051312680008633295,0.07574728953655392,-0.06230825429619757,-1772,-2288,-2363,3826,311,100683
11:53:29.921,19515,1003.90625,4.8828125,-144.53125,-0.11728612573401895,0.06841690667817772,-0.04153883619746505,-1769,-2282,-2354,3826,311,100683
11:53:29.941,19516,968.75,21.484375,-149.4140625,-0.1307251609743753,0.05986479334340551,-0.05009094953223726,-1768,-2279,-2351,3826,311,100683
11:53:29.961,19517,964.84375,30.2734375,-144.53125,-0.12095131716320705,0.06230825429619757,-0.03543018381548489,-1770,-2277,-2356,3826,311,100683
11:53:29.982,19518,984.375,35.15625,-135.7421875,-0.1270599695451872,0.03298672286269283,-0.03420845333908886,-1767,-2279,-2357,3826,311,100683
11:53:30.2,19519,1005.859375,52.734375,-133.7890625,-0.14172073526193957,0.02809980095710871,0.006108652381980153,-1752,-2275,-2360,3826,311,100683
11:53:30.12,19520,1028.3203125,93.75,-127.9296875,-0.09285151620609834,0.0024434609527920616,0.04153883619746505,-1770,-2273,-2351,3826,311,100683
11:53:30.32,19521,1034.1796875,97.65625,-116.2109375,-0.05009094953223726,0.025656340004316647,0.048869219055841226,-1770,-2279,-2352,3826,311,100683
11:53:30.53,19522,1047.8515625,64.453125,-114.2578125,0.02809980095710871,0.006108652381980153,0.07208209810736582,-1768,-2275,-2359,3826,311,100683
11:53:30.73,19523,1051.7578125,34.1796875,-120.1171875,0.09040805525330627,-0.03665191429188092,0.06597344572538566,-1760,-2275,-2348,3826,311,100683
11:53:30.83,19524,1044.921875,34.1796875,-132.8125,0.08063421144213802,-0.04642575810304917,0.07574728953655392,-1767,-2282,-2349,3826,311,100683
11:53:30.104,19525,1026.3671875,32.2265625,-117.1875,0.019547687622336492,-0.039095375244672985,0.06475171524898964,-1767,-2286,-2360,3826,311,100683
11:53:30.124,19526,1028.3203125,29.296875,-124.0234375,0.014660765716752368,-0.058643062867009474,0.048869219055841226,-1767,-2279,-2361,3826,311,100683
11:53:30.144,19527,1022.4609375,35.15625,-127.9296875,0.014660765716752368,-0.058643062867009474,0.04520402762665313,-1769,-2283,-2362,3796,311,100683
11:53:30.164,19528,1014.6484375,58.59375,-112.3046875,0.014660765716752368,-0.08796459430051422,0.03787364476827696,-1767,-2279,-2363,3796,311,100683
11:53:30.175,19529,1021.484375,46.875,-117.1875,0.05375614096142535,-0.09040805525330627,0.01710422666954443,-1769,-2284,-2357,3796,311,100683
11:53:30.195,19530,1027.34375,54.6875,-133.7890625,0.11606439525762292,-0.10873401239924674,0.006108652381980153,-1750,-2274,-2354,3796,311,100683
11:53:30.266,19531,1028.3203125,59.5703125,-133.7890625,0.12461650859239513,-0.11362093430483088,0.012217304763960306,-1770,-2288,-2360,3796,311,100683
11:53:30.286,19532,1026.3671875,59.5703125,-115.234375,0.16126842288427604,-0.10629055144645469,-0.009773843811168246,-1769,-2287,-2346,3796,311,100683
11:53:30.347,19533,1002.9296875,35.15625,-128.90625,0.22846359908605776,-0.08429940287132612,-0.012217304763960306,-1766,-2288,-2354,3796,311,100683
11:53:30.358,19534,999.0234375,2.9296875,-138.671875,0.2467895562319982,-0.06475171524898964,-0.0635299847725936,-1773,-2288,-2352,3796,311,100683
11:53:30.378,19535,999.0234375,-4.8828125,-136.71875,0.2028072590817411,-0.07086036763096978,-0.07086036763096978,-1776,-2292,-2350,3796,311,100683
11:53:30.399,19536,990.234375,-22.4609375,-144.53125,0.17470745812463243,-0.058643062867009474,-0.10629055144645469,-1769,-2290,-2345,3796,311,100683
11:53:30.419,19537,994.140625,-23.4375,-147.4609375,0.12583823906879116,-0.05497787143782139,-0.11606439525762292,-1775,-2291,-2353,3796,311,100683
11:53:30.430,19538,1001.953125,3.90625,-144.53125,0.051312680008633295,-0.04276056667386108,-0.1356120828799594,-1773,-2292,-2353,3796,311,100683
11:53:30.450,19539,1009.765625,13.671875,-125.9765625,0.04276056667386108,-0.03054326190990077,-0.12583823906879116,-1772,-2286,-2351,3796,311,100683
11:53:30.470,19540,1017.578125,23.4375,-131.8359375,0.08552113334772216,-0.01710422666954443,-0.1356120828799594,-1756,-2284,-2351,3796,311,100683
11:53:30.491,19541,1009.765625,16.6015625,-138.671875,0.09407324668249437,-0.0158824961931484,-0.11606439525762292,-1774,-2288,-2360,3796,311,100683
11:53:30.511,19542,1010.7421875,15.625,-139.6484375,0.0476474885794452,0.010995574287564277,-0.11239920382843484,-1774,-2287,-2349,3796,311,100683
11:53:30.521,19543,1004.8828125,19.53125,-133.7890625,0.05619960191421742,0.0,-0.09407324668249437,-1771,-2292,-2353,3796,311,100683
11:53:30.541,19544,1005.859375,9.765625,-133.7890625,0.05742133239061345,0.006108652381980153,-0.08063421144213802,-1773,-2284,-2355,3796,311,100683
11:53:30.562,19545,1008.7890625,0.9765625,-134.765625,0.05986479334340551,0.02809980095710871,-0.06475171524898964,-1772,-2281,-2350,3796,311,100683
11:53:30.582,19546,1007.8125,-6.8359375,-138.671875,0.03543018381548489,0.03298672286269283,-0.05619960191421742,-1771,-2286,-2362,3796,311,100683
11:53:30.592,19547,1001.953125,-9.765625,-131.8359375,-0.023212879051524585,0.03054326190990077,-0.058643062867009474,-1739,-2276,-2355,3796,311,100683
11:53:30.612,19548,1002.9296875,-7.8125,-137.6953125,-0.03665191429188092,0.021991148575128554,-0.03420845333908886,-1764,-2285,-2356,3796,311,100683
11:53:30.633,19549,1006.8359375,8.7890625,-139.6484375,-0.07941248096574201,0.020769418098732523,-0.03054326190990077,-1768,-2282,-2365,3796,311,100683
11:53:30.653,19550,1006.8359375,17.578125,-133.7890625,-0.0867428638241182,0.023212879051524585,-0.009773843811168246,-1771,-2283,-2353,3796,311,100683
11:53:30.673,19551,1028.3203125,9.765625,-125.0,-0.10629055144645469,0.019547687622336492,0.0024434609527920616,-1751,-2279,-2344,3796,311,100683
11:53:30.684,19552,1029.296875,9.765625,-125.9765625,-0.1111774733520388,0.0012217304763960308,-0.010995574287564277,-1767,-2282,-2360,3796,311,100683
11:53:30.704,19553,1023.4375,18.5546875,-135.7421875,-0.12583823906879116,-0.0317649923862968,0.0,-1768,-2280,-2354,3796,311,100683
11:53:30.724,19554,1012.6953125,21.484375,-140.625,-0.1551597705022959,-0.024434609527920613,0.007330382858376184,-1772,-2281,-2348,3796,311,100683
11:53:30.744,19555,1026.3671875,34.1796875,-137.6953125,-0.1734857276482364,-0.024434609527920613,0.004886921905584123,-1771,-2280,-2349,3796,311,100683
11:53:30.765,19556,1026.3671875,19.53125,-133.7890625,-0.19669860669976097,-0.029321531433504737,0.008552113334772215,-1769,-2282,-2358,3796,311,100683
11:53:30.775,19557,1016.6015625,21.484375,-131.8359375,-0.197920337176157,-0.03787364476827696,-0.01832595714594046,-1767,-2274,-2354,3796,311,100683
11:53:30.795,19558,1000.9765625,9.765625,-137.6953125,-0.2235766771804736,-0.0317649923862968,-0.03054326190990077,-1754,-2268,-2355,3796,311,100683
11:53:30.815,19559,992.1875,8.7890625,-139.6484375,-0.22479840765686968,-0.03787364476827696,-0.02809980095710871,-1773,-2274,-2353,3796,311,100683
11:53:30.836,19560,983.3984375,14.6484375,-132.8125,-0.2528982086139784,-0.05742133239061345,-0.0476474885794452,-1767,-2279,-2356,3796,311,100683
11:53:30.856,19561,993.1640625,13.671875,-125.9765625,-0.2858849314766712,-0.03787364476827696,-0.06597344572538566,-1760,-2268,-2353,3796,311,100683
11:53:30.866,19562,1003.90625,14.6484375,-125.0,-0.31520646291017596,-0.029321531433504737,-0.07941248096574201,-1769,-2272,-2354,3796,311,100683
11:53:30.907,19563,1007.8125,10.7421875,-129.8828125,-0.3481931857728688,-0.026878070480712675,-0.07696902001294993,-1770,-2272,-2345,3796,311,100683
11:53:30.978,19564,1001.953125,18.5546875,-125.9765625,-0.3872885610175418,-0.03665191429188092,-0.08185594191853407,-1769,-2269,-2338,3796,311,100683
11:53:30.999,19565,1002.9296875,39.0625,-131.8359375,-0.42516220578581876,-0.021991148575128554,-0.0671951762017817,-1766,-2270,-2347,3796,311,100683
11:53:31.19,19566,999.0234375,51.7578125,-133.7890625,-0.4459316238845512,0.009773843811168246,-0.06475171524898964,-1750,-2262,-2342,3796,311,100683
11:53:31.29,19567,1002.9296875,68.359375,-127.9296875,-0.43860124102617504,0.003665191429188092,-0.051312680008633295,-1763,-2266,-2335,3796,311,100683
11:53:31.50,19568,1009.765625,55.6640625,-125.9765625,-0.41294490102185843,0.007330382858376184,-0.03298672286269283,-1763,-2260,-2343,3796,311,100683
11:53:31.70,19569,1016.6015625,65.4296875,-137.6953125,-0.38362336958835364,0.0012217304763960308,-0.01832595714594046,-1769,-2263,-2337,3796,311,100683
11:53:31.91,19570,1027.34375,77.1484375,-125.9765625,-0.39706240482871,0.014660765716752368,-0.0012217304763960308,-1769,-2257,-2342,3796,311,100683
11:53:31.111,19571,1024.4140625,81.0546875,-126.953125,-0.3726277953007894,0.04153883619746505,0.003665191429188092,-1768,-2256,-2345,3796,311,100683
11:53:31.121,19572,1029.296875,77.1484375,-129.8828125,-0.35185837720205687,0.04276056667386108,0.03787364476827696,-1770,-2259,-2337,3796,311,100683
11:53:31.142,19573,1041.015625,82.03125,-126.953125,-0.3274237676741363,0.025656340004316647,0.06841690667817772,-1769,-2260,-2340,3796,311,100683
11:53:31.182,19574,1032.2265625,84.9609375,-131.8359375,-0.2919935838586513,0.029321531433504737,0.09040805525330627,-1773,-2253,-2345,3796,311,100683
11:53:31.203,19575,1021.484375,91.796875,-128.90625,-0.2577851305195625,0.03787364476827696,0.11728612573401895,-1747,-2248,-2346,3796,311,100683
11:53:31.254,19576,1010.7421875,83.984375,-127.9296875,-0.2309070600388498,0.025656340004316647,0.14538592669112765,-1772,-2255,-2341,3796,311,100683
11:53:31.275,19577,1009.765625,96.6796875,-125.9765625,-0.2028072590817411,0.02809980095710871,0.13683381335635544,-1772,-2253,-2343,3820,311,100686
11:53:31.285,19578,999.0234375,81.0546875,-125.0,-0.18081611050661253,0.03298672286269283,0.13316862192716736,-1771,-2255,-2351,3820,311,100686
11:53:31.305,19579,994.140625,56.640625,-146.484375,-0.18814649336498873,0.05009094953223726,0.13194689145077132,-1767,-2260,-2346,3820,311,100686
11:53:31.325,19580,987.3046875,58.59375,-150.390625,-0.22479840765686968,0.05986479334340551,0.1307251609743753,-1766,-2255,-2346,3820,311,100686
11:53:31.346,19581,991.2109375,83.0078125,-134.765625,-0.2431243648028101,0.05619960191421742,0.11972958668681102,-1769,-2257,-2345,3820,311,100686
11:53:31.366,19582,999.0234375,112.3046875,-131.8359375,-0.1710422666954443,0.03787364476827696,0.12950343049797927,-1769,-2250,-2339,3820,311,100686
11:53:31.376,19583,1009.765625,109.375,-131.8359375,-0.12217304763960309,0.04520402762665313,0.11728612573401895,-1769,-2254,-2346,3820,311,100686
11:53:31.396,19584,1028.3203125,101.5625,-135.7421875,-0.08063421144213802,0.029321531433504737,0.10629055144645469,-1772,-2254,-2344,3820,311,100686
11:53:31.417,19585,1028.3203125,102.5390625,-127.9296875,-0.013439035240356337,0.021991148575128554,0.10995574287564278,-1771,-2260,-2352,3820,311,100686
11:53:31.437,19586,1037.109375,106.4453125,-122.0703125,0.05986479334340551,0.014660765716752368,0.11606439525762292,-1760,-2248,-2344,3820,311,100686
11:53:31.457,19587,1022.4609375,90.8203125,-130.859375,0.09285151620609834,0.020769418098732523,0.08429940287132612,-1770,-2258,-2352,3820,311,100686
11:53:31.468,19588,1021.484375,84.9609375,-128.90625,0.07696902001294993,0.009773843811168246,0.05375614096142535,-1769,-2259,-2337,3820,311,100686
11:53:31.488,19589,1011.71875,65.4296875,-124.0234375,0.0989601685880785,-0.0158824961931484,0.04276056667386108,-1760,-2258,-2347,3820,311,100686
11:53:31.509,19590,1024.4140625,76.171875,-134.765625,0.11728612573401895,-0.013439035240356337,0.024434609527920613,-1771,-2261,-2346,3820,311,100686
11:53:31.529,19591,1025.390625,86.9140625,-123.046875,0.11972958668681102,-0.008552113334772215,0.013439035240356337,-1772,-2267,-2342,3820,311,100686
11:53:31.539,19592,1006.8359375,96.6796875,-119.140625,0.12950343049797927,-0.0012217304763960308,0.0,-1771,-2265,-2346,3820,311,100686
11:53:31.560,19593,1005.859375,65.4296875,-112.3046875,0.16249015336067207,-0.003665191429188092,-0.025656340004316647,-1761,-2261,-2341,3820,311,100686
11:53:31.580,19594,1011.71875,52.734375,-119.140625,0.16737707526625623,0.0024434609527920616,-0.03665191429188092,-1775,-2265,-2335,3820,311,100686
11:53:31.600,19595,1006.8359375,61.5234375,-123.046875,0.17715091907742447,-0.019547687622336492,-0.03298672286269283,-1772,-2268,-2347,3820,311,100686
11:53:31.620,19596,1007.8125,76.171875,-114.2578125,0.1820378409830086,-0.013439035240356337,-0.051312680008633295,-1755,-2260,-2352,3820,311,100686
11:53:31.631,19597,1030.2734375,85.9375,-106.4453125,0.16126842288427604,-0.013439035240356337,-0.04520402762665313,-1767,-2265,-2333,3820,311,100686
11:53:31.651,19598,1039.0625,76.171875,-92.7734375,0.2309070600388498,-0.024434609527920613,-0.08063421144213802,-1767,-2266,-2344,3820,311,100686
11:53:31.671,19599,1039.0625,62.5,-91.796875,0.3017674276698196,-0.06475171524898964,-0.09773843811168245,-1772,-2266,-2353,3820,311,100686
11:53:31.691,19600,1031.25,49.8046875,-104.4921875,0.2944370448114434,-0.03665191429188092,-0.09773843811168245,-1772,-2267,-2353,3820,311,100686
11:53:31.712,19601,1028.3203125,48.828125,-130.859375,0.2614503219487506,-0.051312680008633295,-0.10873401239924674,-1774,-2271,-2344,3820,311,100686
11:53:31.722,19602,1027.34375,58.59375,-120.1171875,0.25900686099595854,-0.05619960191421742,-0.10506882097005865,-1767,-2264,-2351,3820,311,100686
11:53:31.742,19603,1025.390625,59.5703125,-117.1875,0.3090978105281958,-0.06108652381980154,-0.10262536001726659,-1766,-2264,-2351,3820,311,100686
11:53:31.763,19604,1016.6015625,62.5,-100.5859375,0.3787364476827696,-0.05986479334340551,-0.08429940287132612,-1771,-2261,-2349,3820,311,100686
11:53:31.783,19605,1012.6953125,23.4375,-107.421875,0.3824016391119576,-0.05497787143782139,-0.12217304763960309,-1776,-2263,-2346,3820,311,100686
11:53:31.803,19606,1001.953125,9.765625,-117.1875,0.3530801076784529,-0.05986479334340551,-0.1429424657383356,-1772,-2263,-2352,3820,311,100686
11:53:31.813,19607,1002.9296875,-0.0,-122.0703125,0.2700024352835228,-0.05986479334340551,-0.1356120828799594,-1770,-2270,-2342,3820,311,100686
11:53:31.834,19608,1003.90625,12.6953125,-134.765625,0.2150245638457014,-0.0317649923862968,-0.1307251609743753,-1776,-2265,-2346,3820,311,100686
11:53:31.854,19609,1010.7421875,30.2734375,-133.7890625,0.1820378409830086,-0.01832595714594046,-0.11850785621041499,-1776,-2268,-2349,3820,311,100686
11:53:31.875,19610,1010.7421875,40.0390625,-130.859375,0.23945917337362205,-0.026878070480712675,-0.11362093430483088,-1772,-2267,-2353,3820,311,100686
11:53:31.895,19611,1010.7421875,34.1796875,-123.046875,0.24556782575560218,-0.003665191429188092,-0.10629055144645469,-1775,-2266,-2345,3820,311,100686
11:53:31.905,19612,1011.71875,25.390625,-126.953125,0.238237442897226,-0.004886921905584123,-0.09285151620609834,-1773,-2265,-2353,3820,311,100686
11:53:31.925,19613,1004.8828125,26.3671875,-125.9765625,0.20891591146372127,-0.008552113334772215,-0.06963863715457375,-1773,-2262,-2352,3820,311,100686
11:53:31.946,19614,1009.765625,32.2265625,-126.953125,0.16371188383706814,0.0012217304763960308,-0.07086036763096978,-1774,-2268,-2357,3820,311,100686
11:53:31.966,19615,1010.7421875,40.0390625,-129.8828125,0.1502728485967118,0.013439035240356337,-0.05619960191421742,-1772,-2273,-2346,3820,311,100686
11:53:31.987,19616,1014.6484375,32.2265625,-133.7890625,0.16004669240788005,0.025656340004316647,-0.058643062867009474,-1778,-2266,-2359,3820,311,100686
11:53:31.997,19617,1016.6015625,20.5078125,-132.8125,0.12583823906879116,0.020769418098732523,-0.04642575810304917,-1763,-2267,-2349,3820,311,100686
11:53:32.37,19618,1014.6484375,20.5078125,-138.671875,0.11850785621041499,-0.0012217304763960308,-0.019547687622336492,-1771,-2268,-2348,3820,311,100686
11:53:32.58,19619,1006.8359375,31.25,-143.5546875,0.07941248096574201,0.012217304763960306,-0.025656340004316647,-1770,-2272,-2352,3820,311,100686
11:53:32.68,19620,1003.90625,36.1328125,-146.484375,0.03787364476827696,0.029321531433504737,-0.0024434609527920616,-1770,-2269,-2347,3820,311,100686
11:53:32.88,19621,1001.953125,39.0625,-136.71875,0.03420845333908886,-0.010995574287564277,0.0,-1774,-2265,-2353,3820,311,100686
11:53:32.108,19622,1014.6484375,26.3671875,-142.578125,0.026878070480712675,-0.004886921905584123,0.0024434609527920616,-1775,-2270,-2355,3820,311,100686
11:53:32.160,19623,1007.8125,19.53125,-145.5078125,0.010995574287564277,0.012217304763960306,0.008552113334772215,-1773,-2270,-2353,3820,311,100686
11:53:32.384,19624,1005.859375,16.6015625,-147.4609375,-0.03420845333908886,0.01832595714594046,0.009773843811168246,-1765,-2269,-2350,3820,311,100686
11:53:32.404,19625,1002.9296875,24.4140625,-141.6015625,-0.0867428638241182,0.01832595714594046,0.013439035240356337,-1776,-2268,-2350,3820,311,100686
11:53:32.415,19626,1013.671875,21.484375,-133.7890625,-0.14049900478554353,-0.008552113334772215,0.009773843811168246,-1775,-2271,-2349,3820,311,100686
11:53:32.435,19627,1009.765625,21.484375,-137.6953125,-0.1392772743091475,-0.014660765716752368,0.004886921905584123,-1770,-2271,-2359,3820,311,100680
11:53:32.455,19628,1002.9296875,19.53125,-139.6484375,-0.17470745812463243,-0.013439035240356337,0.012217304763960306,-1770,-2266,-2343,3820,311,100680
11:53:32.476,19629,1010.7421875,18.5546875,-140.625,-0.2211332162276816,-0.0158824961931484,-0.0012217304763960308,-1772,-2266,-2358,3820,311,100680
11:53:32.496,19630,999.0234375,32.2265625,-111.328125,-0.2883283924294633,-0.0158824961931484,0.0,-1758,-2257,-2339,3820,311,100680
11:53:32.507,19631,971.6796875,35.15625,-112.3046875,-0.2871066619530672,-0.01710422666954443,-0.020769418098732523,-1767,-2259,-2349,3820,311,100680
11:53:32.527,19632,981.4453125,39.0625,-114.2578125,-0.31520646291017596,-0.020769418098732523,-0.026878070480712675,-1770,-2263,-2355,3820,311,100680
11:53:32.579,19633,1004.8828125,66.40625,-125.0,-0.34330626386728463,-0.026878070480712675,-0.014660765716752368,-1766,-2257,-2355,3820,311,100680
11:53:32.660,19634,1045.8984375,71.2890625,-123.046875,-0.34086280291449256,-0.06963863715457375,0.0024434609527920616,-1769,-2255,-2361,3820,311,100680
11:53:32.670,19635,1065.4296875,73.2421875,-126.953125,-0.26022859147235455,-0.06841690667817772,0.006108652381980153,-1766,-2255,-2350,3820,311,100680
11:53:32.690,19636,1049.8046875,69.3359375,-138.671875,-0.2296853295624538,-0.051312680008633295,0.021991148575128554,-1765,-2253,-2358,3820,311,100680
11:53:32.710,19639,1000.0,56.640625,-132.8125,-0.1148426647812269,-0.04398229715025711,0.025656340004316647,-1772,-2261,-2341,3820,311,100680
11:53:32.731,19645,1022.4609375,73.2421875,-143.5546875,0.051312680008633295,0.024434609527920613,0.07574728953655392,-1761,-2255,-2338,3820,311,100680
11:53:32.741,19646,1023.4375,29.296875,-134.765625,0.03420845333908886,0.048869219055841226,0.058643062867009474,-1773,-2258,-2348,3820,311,100680
11:53:32.761,19647,1013.671875,0.9765625,-151.3671875,0.019547687622336492,0.04276056667386108,0.03665191429188092,-1771,-2258,-2336,3820,311,100680
11:53:32.782,19648,999.0234375,12.6953125,-144.53125,-0.039095375244672985,0.05009094953223726,0.009773843811168246,-1770,-2263,-2332,3820,311,100680
11:53:32.802,19649,980.46875,41.015625,-143.5546875,-0.14905111812031577,0.05375614096142535,0.009773843811168246,-1767,-2261,-2350,3820,311,100680
11:53:32.823,19650,981.4453125,82.03125,-129.8828125,-0.15638150097869194,0.03787364476827696,0.029321531433504737,-1772,-2262,-2335,3820,311,100680
11:53:32.833,19651,999.0234375,88.8671875,-114.2578125,-0.12828170002158323,0.024434609527920613,0.010995574287564277,-1766,-2263,-2344,3820,311,100680
11:53:32.853,19652,1019.53125,61.5234375,-117.1875,-0.07574728953655392,0.03054326190990077,-0.008552113334772215,-1766,-2258,-2352,3820,311,100680
11:53:32.874,19653,1015.625,59.5703125,-125.9765625,-0.06475171524898964,0.03420845333908886,-0.021991148575128554,-1769,-2257,-2354,3820,311,100680
11:53:32.894,19654,1003.90625,41.015625,-131.8359375,-0.10506882097005865,0.020769418098732523,-0.01710422666954443,-1769,-2257,-2334,3820,311,100680
11:53:32.914,19659,1024.4140625,102.5390625,-129.8828125,-0.07574728953655392,0.029321531433504737,0.07086036763096978,-1745,-2248,-2348,3820,311,100680
11:53:32.925,19660,1008.7890625,95.703125,-118.1640625,-0.03787364476827696,0.026878070480712675,0.09773843811168245,-1771,-2256,-2343,3820,311,100680
11:53:32.945,19661,1011.71875,81.0546875,-115.234375,-0.026878070480712675,0.0317649923862968,0.07696902001294993,-1770,-2257,-2363,3820,311,100680
11:53:32.965,19662,1014.6484375,86.9140625,-114.2578125,-0.03420845333908886,-0.014660765716752368,0.08429940287132612,-1774,-2254,-2346,3820,311,100680
11:53:32.986,19663,1004.8828125,83.0078125,-115.234375,0.024434609527920613,-0.06475171524898964,0.09407324668249437,-1748,-2251,-2342,3820,311,100680
11:53:32.996,19664,999.0234375,92.7734375,-130.859375,0.0830776723949301,-0.05375614096142535,0.10262536001726659,-1772,-2259,-2349,3820,311,100680
11:53:33.16,19665,1006.8359375,90.8203125,-128.90625,0.08185594191853407,-0.04520402762665313,0.11972958668681102,-1774,-2265,-2343,3820,311,100680
11:53:33.37,19666,1009.765625,110.3515625,-125.0,0.10629055144645469,-0.04031710572106901,0.11362093430483088,-1767,-2268,-2354,3820,311,100680
11:53:33.57,19667,1023.4375,83.984375,-97.65625,0.1233947781159991,-0.013439035240356337,0.07819075048934597,-1774,-2266,-2348,3820,311,100680
11:53:33.78,19668,1036.1328125,68.359375,-121.09375,0.13683381335635544,-0.006108652381980153,0.05742133239061345,-1772,-2273,-2355,3820,311,100680
11:53:33.88,19669,1035.15625,70.3125,-124.0234375,0.13683381335635544,-0.014660765716752368,0.039095375244672985,-1775,-2268,-2343,3820,311,100680
11:53:33.108,19670,1042.96875,77.1484375,-133.7890625,0.2101376419401173,-0.03298672286269283,0.04153883619746505,-1772,-2269,-2345,3820,311,100680
11:53:33.129,19671,1046.875,89.84375,-139.6484375,0.25656340004316647,-0.01710422666954443,0.03420845333908886,-1768,-2272,-2343,3820,311,100680
11:53:33.149,19672,1040.0390625,79.1015625,-133.7890625,0.33719761148530447,-0.025656340004316647,0.0158824961931484,-1768,-2273,-2347,3820,311,100680
11:53:33.169,19673,1040.0390625,70.3125,-130.859375,0.37140606482439337,-0.024434609527920613,-0.013439035240356337,-1765,-2271,-2346,3820,311,100680
11:53:33.179,19674,1012.6953125,54.6875,-125.9765625,0.42638393626221477,-0.01710422666954443,-0.019547687622336492,-1768,-2272,-2350,3820,311,100680
11:53:33.200,19675,985.3515625,31.25,-129.8828125,0.41783182292744253,-0.010995574287564277,-0.05742133239061345,-1773,-2275,-2363,3820,311,100680
11:53:33.220,19676,981.4453125,13.671875,-131.8359375,0.4056145181634822,-0.0317649923862968,-0.09285151620609834,-1774,-2278,-2349,3820,311,100680
11:53:33.240,19677,991.2109375,6.8359375,-130.859375,0.35796702958403703,-0.02809980095710871,-0.12583823906879116,-1771,-2274,-2351,3826,311,100686
11:53:33.250,19678,999.0234375,-1.953125,-134.765625,0.3066543495754037,-0.026878070480712675,-0.1661553447898602,-1771,-2279,-2351,3826,311,100686
11:53:33.271,19679,1010.7421875,5.859375,-130.859375,0.2651155133779387,-0.020769418098732523,-0.16249015336067207,-1776,-2278,-2348,3826,311,100686
11:53:33.291,19680,1018.5546875,11.71875,-120.1171875,0.19914206765255302,-0.01832595714594046,-0.19181168479417682,-1756,-2269,-2346,3826,311,100686
11:53:33.312,19681,1015.625,17.578125,-124.0234375,0.1734857276482364,-0.0158824961931484,-0.20158552860534507,-1773,-2273,-2345,3826,311,100686
11:53:33.332,19682,1019.53125,9.765625,-135.7421875,0.1710422666954443,-0.009773843811168246,-0.1869247628885927,-1771,-2278,-2347,3826,311,100686
11:53:33.343,19683,1010.7421875,20.5078125,-149.4140625,0.15149457907310784,-0.014660765716752368,-0.17959438003021652,-1769,-2274,-2347,3826,311,100686
11:53:33.363,19684,1020.5078125,31.25,-137.6953125,0.14049900478554353,-0.006108652381980153,-0.15149457907310784,-1771,-2268,-2350,3826,311,100686
11:53:33.383,19685,1016.6015625,34.1796875,-140.625,0.1551597705022959,-0.029321531433504737,-0.15882496193148402,-1769,-2265,-2348,3826,311,100686
11:53:33.403,19686,1019.53125,27.34375,-142.578125,0.13805554383275148,-0.026878070480712675,-0.11362093430483088,-1770,-2269,-2358,3826,311,100686
11:53:33.424,19687,1038.0859375,31.25,-147.4609375,0.1478293876439197,-0.03054326190990077,-0.10018189906447451,-1761,-2265,-2354,3826,311,100686
11:53:33.434,19688,1023.4375,19.53125,-154.296875,0.1429424657383356,-0.03298672286269283,-0.07819075048934597,-1773,-2270,-2344,3826,311,100686
11:53:33.455,19689,1007.8125,18.5546875,-162.109375,0.11972958668681102,-0.010995574287564277,-0.06963863715457375,-1772,-2268,-2359,3826,311,100686
11:53:33.475,19690,1003.90625,22.4609375,-157.2265625,0.06230825429619757,-0.019547687622336492,-0.03420845333908886,-1770,-2266,-2350,3826,311,100686
11:53:33.495,19691,1009.765625,36.1328125,-162.109375,0.03054326190990077,-0.05009094953223726,-0.021991148575128554,-1768,-2265,-2348,3826,311,100686
11:53:33.506,19692,1009.765625,57.6171875,-154.296875,0.03543018381548489,-0.07819075048934597,0.004886921905584123,-1771,-2270,-2349,3826,311,100686
11:53:33.526,19693,1005.859375,58.59375,-149.4140625,0.051312680008633295,-0.09162978572970232,0.0024434609527920616,-1768,-2265,-2350,3826,311,100686
11:53:33.547,19694,1003.90625,44.921875,-148.4375,0.06230825429619757,-0.0830776723949301,0.023212879051524585,-1747,-2258,-2360,3826,311,100686
11:53:33.567,19695,1000.0,43.9453125,-161.1328125,0.03298672286269283,-0.10995574287564278,0.023212879051524585,-1764,-2264,-2356,3826,311,100686
11:53:33.587,19696,1001.953125,32.2265625,-157.2265625,-0.01832595714594046,-0.10995574287564278,0.04276056667386108,-1772,-2271,-2351,3826,311,100686
11:53:33.638,19697,1000.0,37.109375,-155.2734375,-0.07330382858376185,-0.11362093430483088,0.06108652381980154,-1775,-2271,-2342,3826,311,100686
11:53:33.659,19698,1008.7890625,48.828125,-150.390625,-0.08063421144213802,-0.11606439525762292,0.05497787143782139,-1771,-2274,-2347,3826,311,100686
11:53:33.669,19699,1001.953125,51.7578125,-150.390625,-0.05375614096142535,-0.12095131716320705,0.06475171524898964,-1774,-2268,-2343,3826,311,100686
11:53:33.689,19700,1002.9296875,37.109375,-153.3203125,-0.03420845333908886,-0.13683381335635544,0.07452555906015788,-1773,-2270,-2348,3826,311,100686
11:53:33.709,19701,1000.0,27.34375,-158.203125,-0.07208209810736582,-0.12583823906879116,0.0867428638241182,-1772,-2275,-2345,3826,311,100686
11:53:33.730,19702,1003.90625,34.1796875,-158.203125,-0.08918632477691024,-0.1148426647812269,0.10018189906447451,-1774,-2272,-2347,3826,311,100686
11:53:33.750,19703,1006.8359375,43.9453125,-150.390625,-0.1111774733520388,-0.10140362954087055,0.1233947781159991,-1774,-2278,-2341,3826,311,100686
11:53:33.781,19704,1002.9296875,54.6875,-146.484375,-0.07696902001294993,-0.09407324668249437,0.13805554383275148,-1776,-2270,-2340,3826,311,100686
11:53:33.801,19705,1008.7890625,52.734375,-128.90625,-0.07208209810736582,-0.0635299847725936,0.1478293876439197,-1774,-2277,-2335,3826,311,100686
11:53:33.821,19706,1019.53125,34.1796875,-135.7421875,-0.06230825429619757,-0.04642575810304917,0.13316862192716736,-1773,-2280,-2334,3826,311,100686
11:53:33.832,19707,1030.2734375,34.1796875,-144.53125,-0.04642575810304917,-0.05986479334340551,0.1356120828799594,-1775,-2279,-2343,3826,311,100686
11:53:33.852,19708,1021.484375,36.1328125,-135.7421875,-0.06841690667817772,-0.052534410485029326,0.1478293876439197,-1749,-2269,-2338,3826,311,100686
11:53:33.872,19709,1009.765625,52.734375,-134.765625,-0.05619960191421742,-0.03054326190990077,0.1734857276482364,-1782,-2281,-2335,3826,311,100686
11:53:33.892,19710,1000.9765625,62.5,-134.765625,-0.023212879051524585,0.0,0.16859880574265224,-1776,-2281,-2338,3826,311,100686
11:53:33.913,19711,996.09375,54.6875,-135.7421875,0.020769418098732523,0.02809980095710871,0.1429424657383356,-1780,-2282,-2334,3826,311,100686
11:53:33.923,19712,997.0703125,52.734375,-135.7421875,0.05619960191421742,0.04031710572106901,0.14416419621473164,-1772,-2278,-2327,3826,311,100686
11:53:33.943,19713,993.1640625,34.1796875,-133.7890625,0.05619960191421742,0.05497787143782139,0.12950343049797927,-1775,-2284,-2330,3826,311,100686
11:53:33.964,19714,992.1875,43.9453125,-134.765625,0.06108652381980154,0.07941248096574201,0.1307251609743753,-1777,-2290,-2326,3826,311,100686
11:53:33.985,19715,1008.7890625,46.875,-144.53125,0.10873401239924674,0.07330382858376185,0.11606439525762292,-1773,-2287,-2339,3826,311,100686
11:53:34.56,19716,1012.6953125,58.59375,-151.3671875,0.15882496193148402,0.06475171524898964,0.09040805525330627,-1778,-2292,-2340,3826,311,100686
11:53:34.77,19717,1012.6953125,42.96875,-160.15625,0.18448130193580062,0.09407324668249437,0.0671951762017817,-1776,-2287,-2341,3826,311,100686
11:53:34.87,19718,1013.671875,27.34375,-157.2265625,0.1954768762233649,0.11606439525762292,0.03787364476827696,-1777,-2290,-2335,3826,311,100686
11:53:34.107,19719,1029.296875,6.8359375,-154.296875,0.15271630954950383,0.1233947781159991,0.01710422666954443,-1769,-2288,-2340,3826,311,100686
11:53:34.128,19720,1033.203125,-14.6484375,-160.15625,0.1478293876439197,0.11850785621041499,0.01832595714594046,-1773,-2290,-2344,3826,311,100686
11:53:34.148,19721,1026.3671875,-12.6953125,-165.0390625,0.1551597705022959,0.11239920382843484,-0.019547687622336492,-1777,-2299,-2344,3826,311,100686
11:53:34.168,19722,1024.4140625,2.9296875,-164.0625,0.10018189906447451,0.1111774733520388,-0.039095375244672985,-1763,-2292,-2347,3826,311,100686
11:53:34.178,19723,1024.4140625,-3.90625,-161.1328125,0.05497787143782139,0.08796459430051422,-0.05009094953223726,-1776,-2297,-2350,3826,311,100686
11:53:34.198,19724,1010.7421875,11.71875,-157.2265625,0.07086036763096978,0.07452555906015788,-0.058643062867009474,-1778,-2295,-2345,3826,311,100686
11:53:34.219,19725,997.0703125,3.90625,-154.296875,0.10018189906447451,0.05986479334340551,-0.05986479334340551,-1774,-2296,-2343,3826,311,100686
11:53:34.239,19726,1000.0,2.9296875,-155.2734375,0.10018189906447451,0.03665191429188092,-0.07696902001294993,-1774,-2295,-2344,3826,311,100686
11:53:34.249,19727,1000.9765625,-2.9296875,-159.1796875,0.07941248096574201,0.051312680008633295,-0.051312680008633295,-1772,-2295,-2348,3820,311,100686
11:53:34.270,19728,998.046875,0.9765625,-160.15625,0.06841690667817772,0.010995574287564277,-0.04642575810304917,-1771,-2292,-2351,3820,311,100686
11:53:34.290,19729,1000.9765625,8.7890625,-161.1328125,0.08918632477691024,-0.003665191429188092,-0.05497787143782139,-1751,-2280,-2344,3820,311,100686
11:53:34.310,19730,1000.0,10.7421875,-153.3203125,0.07452555906015788,0.006108652381980153,-0.025656340004316647,-1774,-2292,-2346,3820,311,100686
11:53:34.331,19731,1003.90625,18.5546875,-152.34375,0.09651670763528641,0.010995574287564277,-0.006108652381980153,-1773,-2287,-2336,3820,311,100686
11:53:34.341,19732,1007.8125,21.484375,-139.6484375,0.06108652381980154,0.020769418098732523,-0.009773843811168246,-1773,-2288,-2345,3820,311,100686
11:53:34.361,19733,1011.71875,13.671875,-137.6953125,0.08552113334772216,0.007330382858376184,0.009773843811168246,-1774,-2290,-2345,3820,311,100686
11:53:34.382,19734,1010.7421875,10.7421875,-140.625,0.10873401239924674,0.029321531433504737,-0.0012217304763960308,-1778,-2291,-2353,3820,311,100686
11:53:34.402,19735,1004.8828125,8.7890625,-144.53125,0.09407324668249437,0.03787364476827696,0.0012217304763960308,-1776,-2288,-2343,3820,311,100686
11:53:34.423,19736,1004.8828125,-1.953125,-155.2734375,0.0867428638241182,0.039095375244672985,0.024434609527920613,-1773,-2290,-2350,3820,311,100686
11:53:34.433,19737,1008.7890625,11.71875,-144.53125,0.07819075048934597,0.05009094953223726,0.04153883619746505,-1774,-2293,-2350,3820,311,100686
11:53:34.453,19738,1007.8125,6.8359375,-144.53125,0.10018189906447451,0.04520402762665313,0.023212879051524585,-1776,-2292,-2345,3820,311,100686
11:53:34.473,19739,1002.9296875,8.7890625,-148.4375,0.1233947781159991,0.05497787143782139,0.025656340004316647,-1774,-2294,-2358,3820,311,100686
11:53:34.494,19740,1005.859375,4.8828125,-153.3203125,0.13805554383275148,0.07452555906015788,0.03420845333908886,-1751,-2288,-2342,3820,311,100686
11:53:34.504,19741,1011.71875,18.5546875,-143.5546875,0.13805554383275148,0.07941248096574201,0.01832595714594046,-1773,-2295,-2360,3820,311,100686
11:53:34.525,19742,1012.6953125,8.7890625,-120.1171875,0.12828170002158323,0.0952949771588904,0.0158824961931484,-1771,-2297,-2360,3820,311,100686
11:53:34.545,19743,1018.5546875,7.8125,-134.765625,0.14905111812031577,0.0952949771588904,0.013439035240356337,-1774,-2300,-2355,3820,311,100686
11:53:34.565,19744,1027.34375,6.8359375,-144.53125,0.12217304763960309,0.07819075048934597,0.02809980095710871,-1769,-2294,-2363,3820,311,100686
11:53:34.586,19745,1025.390625,2.9296875,-148.4375,0.10873401239924674,0.058643062867009474,0.04520402762665313,-1775,-2302,-2353,3820,311,100686
11:53:34.596,19746,1025.390625,13.671875,-141.6015625,0.12950343049797927,0.058643062867009474,0.03054326190990077,-1773,-2304,-2355,3820,311,100686
11:53:34.616,19747,1006.8359375,9.765625,-144.53125,0.16982053621904827,0.05619960191421742,0.03543018381548489,-1762,-2297,-2360,3820,311,100686
11:53:34.636,19748,1003.90625,25.390625,-136.71875,0.16249015336067207,0.07086036763096978,0.04642575810304917,-1774,-2303,-2359,3820,311,100686
11:53:34.657,19749,998.046875,-4.8828125,-120.1171875,0.15271630954950383,0.05619960191421742,0.0476474885794452,-1774,-2302,-2358,3820,311,100686
11:53:34.678,19750,986.328125,-18.5546875,-125.9765625,0.17226399717184035,0.051312680008633295,0.021991148575128554,-1764,-2305,-2360,3820,311,100686
11:53:34.688,19751,993.1640625,-29.296875,-125.9765625,0.14049900478554353,0.051312680008633295,0.03054326190990077,-1778,-2307,-2362,3820,311,100686
11:53:34.708,19752,1000.0,-30.2734375,-114.2578125,0.0867428638241182,0.05009094953223726,0.012217304763960306,-1774,-2303,-2369,3820,311,100686
11:53:34.729,19753,1001.953125,-25.390625,-108.3984375,0.02809980095710871,0.02809980095710871,0.006108652381980153,-1772,-2304,-2355,3820,311,100686
11:53:34.749,19754,1005.859375,-10.7421875,-107.421875,-0.026878070480712675,0.03298672286269283,0.010995574287564277,-1775,-2303,-2379,3820,311,100686
11:53:34.770,19755,1015.625,-10.7421875,-102.5390625,-0.051312680008633295,0.02809980095710871,0.003665191429188092,-1773,-2304,-2364,3820,311,100686
11:53:34.780,19756,1030.2734375,-10.7421875,-124.0234375,-0.06108652381980154,0.029321531433504737,0.004886921905584123,-1769,-2304,-2367,3820,311,100686
11:53:34.801,19757,1025.390625,-9.765625,-131.8359375,-0.0671951762017817,0.03543018381548489,0.019547687622336492,-1753,-2298,-2370,3820,311,100686
11:53:34.821,19758,1026.3671875,13.671875,-144.53125,-0.03787364476827696,0.010995574287564277,0.026878070480712675,-1766,-2302,-2361,3820,311,100686
11:53:34.842,19759,1041.9921875,9.765625,-103.515625,-0.048869219055841226,0.048869219055841226,0.020769418098732523,-1773,-2306,-2357,3820,311,100686
11:53:34.852,19760,1038.0859375,0.9765625,-108.3984375,-0.04398229715025711,0.048869219055841226,0.01832595714594046,-1774,-2307,-2365,3820,311,100686
11:53:34.872,19761,1032.2265625,-5.859375,-118.1640625,-0.024434609527920613,0.03420845333908886,0.007330382858376184,-1772,-2303,-2381,3820,311,100686
11:53:34.892,19762,1027.34375,-15.625,-126.953125,-0.05497787143782139,0.04276056667386108,0.020769418098732523,-1773,-2307,-2370,3820,311,100686
11:53:34.913,19763,1009.765625,-20.5078125,-134.765625,-0.04031710572106901,0.03298672286269283,0.01710422666954443,-1773,-2302,-2367,3820,311,100686
11:53:34.933,19764,1009.765625,-5.859375,-125.9765625,-0.051312680008633295,0.023212879051524585,0.012217304763960306,-1759,-2297,-2372,3820,311,100686
11:53:34.943,19765,1006.8359375,8.7890625,-113.28125,-0.0671951762017817,0.014660765716752368,0.01710422666954443,-1773,-2307,-2372,3820,311,100686
11:53:34.963,19766,1004.8828125,-5.859375,-101.5625,-0.07452555906015788,-0.0012217304763960308,0.013439035240356337,-1771,-2306,-2359,3820,311,100686
11:53:34.984,19767,1006.8359375,-5.859375,-110.3515625,-0.039095375244672985,-0.019547687622336492,0.01710422666954443,-1772,-2307,-2369,3820,311,100686
11:53:35.4,19768,1011.71875,-7.8125,-121.09375,-0.04276056667386108,-0.003665191429188092,0.013439035240356337,-1770,-2304,-2371,3820,311,100686
11:53:35.24,19769,1019.53125,-13.671875,-111.328125,-0.04398229715025711,-0.026878070480712675,0.006108652381980153,-1774,-2304,-2365,3820,311,100686
11:53:35.34,19770,1025.390625,-20.5078125,-125.0,-0.04153883619746505,-0.0317649923862968,0.03054326190990077,-1770,-2303,-2371,3820,311,100686
11:53:35.55,19771,1027.34375,7.8125,-109.375,-0.07941248096574201,-0.013439035240356337,0.026878070480712675,-1770,-2302,-2372,3820,311,100686
11:53:35.75,19772,1024.4140625,-0.9765625,-92.7734375,-0.10506882097005865,-0.003665191429188092,0.008552113334772215,-1768,-2313,-2357,3820,311,100686
11:53:35.95,19773,1018.5546875,-5.859375,-103.515625,-0.05497787143782139,-0.024434609527920613,0.021991148575128554,-1772,-2309,-2377,3820,311,100686
11:53:35.116,19774,1017.578125,0.9765625,-118.1640625,-0.04153883619746505,-0.029321531433504737,0.021991148575128554,-1770,-2306,-2367,3820,311,100686
11:53:35.126,19775,1009.765625,3.90625,-113.28125,-0.058643062867009474,-0.021991148575128554,0.024434609527920613,-1769,-2306,-2364,3820,311,100686
11:53:35.146,19776,1013.671875,-0.0,-110.3515625,-0.03420845333908886,-0.0158824961931484,0.007330382858376184,-1768,-2302,-2362,3820,311,100686
11:53:35.167,19777,1007.8125,3.90625,-105.46875,-0.039095375244672985,-0.007330382858376184,0.0,-1762,-2303,-2363,3826,311,100686
11:53:35.187,19778,1003.90625,-12.6953125,-112.3046875,-0.02809980095710871,-0.003665191429188092,0.0,-1765,-2303,-2360,3826,311,100686
11:53:35.197,19779,998.046875,-14.6484375,-113.28125,-0.020769418098732523,-0.019547687622336492,0.004886921905584123,-1767,-2303,-2365,3826,311,100686
11:53:35.218,19780,1001.953125,-17.578125,-118.1640625,-0.03054326190990077,0.0,0.0012217304763960308,-1771,-2307,-2361,3826,311,100686
11:53:35.238,19781,1009.765625,-13.671875,-121.09375,-0.025656340004316647,-0.007330382858376184,0.0024434609527920616,-1770,-2312,-2353,3826,311,100686
11:53:35.258,19782,1014.6484375,-1.953125,-115.234375,-0.04153883619746505,-0.020769418098732523,0.0024434609527920616,-1771,-2307,-2370,3826,311,100686
11:53:35.278,19783,1007.8125,-1.953125,-97.65625,-0.06475171524898964,-0.006108652381980153,0.0,-1768,-2303,-2367,3826,311,100686
11:53:35.289,19784,1012.6953125,3.90625,-89.84375,-0.051312680008633295,0.009773843811168246,-0.010995574287564277,-1771,-2306,-2384,3826,311,100686
11:53:35.309,19785,1011.71875,-10.7421875,-103.515625,-0.025656340004316647,0.014660765716752368,-0.008552113334772215,-1763,-2303,-2359,3826,311,100686
11:53:35.329,19786,1003.90625,-24.4140625,-112.3046875,-0.04031710572106901,0.01832595714594046,-0.013439035240356337,-1770,-2305,-2371,3826,311,100686
11:53:35.350,19787,1007.8125,-11.71875,-120.1171875,-0.04520402762665313,0.012217304763960306,-0.012217304763960306,-1772,-2308,-2370,3826,311,100686
11:53:35.370,19788,1014.6484375,-30.2734375,-125.0,-0.052534410485029326,0.026878070480712675,-0.021991148575128554,-1769,-2308,-2359,3826,311,100686
11:53:35.380,19789,1025.390625,-30.2734375,-119.140625,-0.052534410485029326,0.012217304763960306,-0.014660765716752368,-1771,-2306,-2364,3826,311,100686
11:53:35.451,19790,1022.4609375,-26.3671875,-116.2109375,-0.0989601685880785,0.026878070480712675,-0.014660765716752368,-1769,-2304,-2366,3826,311,100686
11:53:35.471,19791,1015.625,-13.671875,-113.28125,-0.10018189906447451,0.0158824961931484,-0.0024434609527920616,-1771,-2298,-2362,3826,311,100686
11:53:35.492,19792,1022.4609375,-1.953125,-125.9765625,-0.07941248096574201,0.019547687622336492,0.003665191429188092,-1758,-2297,-2370,3826,311,100686
11:53:35.512,19793,1025.390625,-3.90625,-118.1640625,-0.05619960191421742,0.04153883619746505,0.006108652381980153,-1772,-2304,-2368,3826,311,100686
11:53:35.533,19794,1018.5546875,1.953125,-116.2109375,-0.06230825429619757,0.03665191429188092,0.008552113334772215,-1771,-2302,-2362,3826,311,100686
11:53:35.543,19795,1022.4609375,6.8359375,-103.515625,-0.05619960191421742,0.009773843811168246,0.025656340004316647,-1772,-2302,-2365,3826,311,100686
11:53:35.564,19796,1023.4375,6.8359375,-113.28125,-0.01710422666954443,-0.004886921905584123,0.023212879051524585,-1762,-2304,-2364,3826,311,100686
11:53:35.584,19797,1021.484375,14.6484375,-134.765625,0.026878070480712675,0.010995574287564277,0.0158824961931484,-1769,-2304,-2365,3826,311,100686
11:53:35.604,19798,1022.4609375,17.578125,-129.8828125,0.0317649923862968,0.007330382858376184,0.010995574287564277,-1771,-2307,-2367,3826,311,100686
11:53:35.624,19799,1022.4609375,16.6015625,-136.71875,0.0024434609527920616,-0.013439035240356337,-0.004886921905584123,-1769,-2311,-2374,3826,311,100686
11:53:35.635,19800,1025.390625,30.2734375,-153.3203125,-0.048869219055841226,-0.03787364476827696,-0.0476474885794452,-1768,-2307,-2365,3826,311,100686
11:53:35.655,19801,1041.015625,56.640625,-162.109375,0.012217304763960306,-0.05375614096142535,-0.09162978572970232,-1770,-2304,-2360,3826,311,100686
11:53:35.675,19802,1048.828125,25.390625,-210.9375,0.0317649923862968,-0.07941248096574201,-0.14905111812031577,-1767,-2302,-2366,3826,311,100686
11:53:35.696,19803,1068.359375,3.90625,-257.8125,0.03665191429188092,-0.1954768762233649,-0.2614503219487506,-1767,-2302,-2359,3826,311,100686
11:53:35.706,19804,1091.796875,12.6953125,-251.953125,0.051312680008633295,-0.34941491624926485,-0.40072759625789806,-1765,-2302,-2372,3826,311,100686
11:53:35.726,19805,1115.234375,45.8984375,-219.7265625,0.09407324668249437,-0.49113565151120436,-0.555887366760194,-1771,-2302,-2357,3826,311,100686
11:53:35.747,19806,1116.2109375,64.453125,-217.7734375,0.06597344572538566,-0.55100044485461,-0.7147123286916779,-1755,-2288,-2361,3826,311,100686
11:53:35.767,19807,1118.1640625,142.578125,-198.2421875,0.12828170002158323,-0.6194173515327875,-0.9236282401553992,-1769,-2292,-2352,3826,311,100686
11:53:35.788,19808,1103.515625,206.0546875,-204.1015625,0.2528982086139784,-0.6927211801165495,-1.070235897322923,-1767,-2286,-2344,3826,311,100686
11:53:35.798,19809,1046.875,219.7265625,-221.6796875,0.39950586578150205,-0.6841690667817772,-1.2082914411556744,-1764,-2275,-2348,3826,311,100686
11:53:35.818,19810,1028.3203125,236.328125,-271.484375,0.756251164889143,-0.8356636458548851,-1.303586418314565,-1768,-2260,-2336,3826,311,100686
11:53:35.839,19811,1011.71875,271.484375,-332.03125,0.9395107363485476,-0.912632665867835,-1.3695598640399507,-1766,-2257,-2336,3826,311,100686
11:53:35.859,19812,1027.34375,311.5234375,-310.546875,0.9419541973013398,-0.8466592201424493,-1.5259413650186424,-1769,-2251,-2332,3826,311,100686
11:53:35.869,19813,1025.390625,407.2265625,-249.0234375,1.0225884087434776,-0.913854396344231,-1.7018705536196708,-1762,-2235,-2319,3826,311,100686
11:53:35.889,19814,1043.9453125,477.5390625,-315.4296875,1.2217304763960306,-0.8930849782454985,-1.8008307222077493,-1774,-2228,-2312,3826,311,100686
11:53:35.910,19815,1053.7109375,452.1484375,-291.015625,1.0971139678036357,-0.8918632477691024,-1.9266689612765406,-1772,-2223,-2303,3826,311,100686
11:53:35.930,19816,1043.9453125,506.8359375,-353.515625,1.0054841820739333,-0.8967501696746865,-2.227214658469964,-1775,-2211,-2305,3826,311,100686
11:53:35.950,19817,998.046875,591.796875,-335.9375,0.9663888068292604,-0.9395107363485476,-2.4300219175517053,-1776,-2194,-2287,3826,311,100686
11:53:35.961,19818,1004.8828125,561.5234375,-325.1953125,0.8979719001510825,-0.8967501696746865,-2.658485516637763,-1774,-2190,-2281,3826,311,100686
11:53:35.981,19819,1032.2265625,553.7109375,-361.328125,0.7293730944084303,-0.8429940287132612,-2.8344147052387916,-1780,-2172,-2272,3826,311,100686
11:53:36.2,19820,932.6171875,604.4921875,-368.1640625,0.49113565151120436,-0.913854396344231,-3.0005700500286516,-1778,-2154,-2267,3826,311,100686
11:53:36.22,19821,891.6015625,604.4921875,-386.71875,0.19669860669976097,-1.0360274439838342,-3.1410690548141953,-1781,-2137,-2262,3826,311,100686
11:53:36.32,19822,915.0390625,660.15625,-313.4765625,0.05497787143782139,-1.0103711039795176,-3.301115747222075,-1786,-2107,-2252,3826,311,100686
11:53:36.53,19823,876.953125,646.484375,-316.40625,0.052534410485029326,-0.9810495725460128,-3.2278119186383134,-1812,-2086,-2250,3826,311,100686
11:53:36.74,19824,811.5234375,666.015625,-412.109375,0.05742133239061345,-1.0262536001726659,-3.128851750050235,-1811,-2074,-2235,3826,311,100686
11:53:36.94,19825,750.9765625,659.1796875,-416.015625,0.06108652381980154,-0.9749409201640327,-3.068986956706829,-1836,-2054,-2224,3826,311,100686
11:53:36.115,19826,736.328125,671.875,-378.90625,0.1502728485967118,-0.9346238144429636,-3.0225611986037797,-1850,-2028,-2222,3826,311,100686
11:53:36.125,19827,674.8046875,670.8984375,-420.8984375,0.2516764781375823,-0.9248499706317953,-2.891836037629405,-1855,-2019,-2221,3826,311,100684
11:53:36.145,19828,615.234375,659.1796875,-397.4609375,0.3005456971934236,-0.7745771220350836,-2.7427849195090888,-1880,-1999,-2206,3826,311,100684
11:53:36.165,19829,551.7578125,632.8125,-379.8828125,0.25900686099595854,-0.6731734924942129,-2.6279422547278624,-1896,-1986,-2201,3826,311,100684
11:53:36.216,19830,519.53125,674.8046875,-415.0390625,0.3127630019573839,-0.5986479334340551,-2.4813345975603385,-1902,-1982,-2203,3826,311,100684
11:53:36.237,19831,459.9609375,674.8046875,-423.828125,0.4300491276914028,-0.4850269991292242,-2.3127357918176865,-1925,-1970,-2202,3826,311,100684
11:53:36.257,19832,414.0625,640.625,-376.953125,0.49968776484597655,-0.39217548292312593,-2.146580447027826,-1932,-1963,-2192,3826,311,100684
11:53:36.277,19833,388.671875,605.46875,-406.25,0.516791991515521,-0.26022859147235455,-1.9718729889031936,-1943,-1960,-2183,3826,311,100684
11:53:36.287,19834,348.6328125,634.765625,-417.96875,0.6218608124855797,-0.16737707526625623,-1.826487062212066,-1949,-1950,-2183,3826,311,100684
11:53:36.308,19835,310.546875,624.0234375,-416.9921875,0.6572909963010646,-0.029321531433504737,-1.6701055612333742,-1966,-1946,-2173,3826,311,100684
11:53:36.328,19836,292.96875,646.484375,-450.1953125,0.6120869686744114,0.0635299847725936,-1.497841564061534,-1969,-1942,-2162,3826,311,100684
11:53:36.348,19837,258.7890625,636.71875,-507.8125,0.5229006438975012,0.08552113334772216,-1.341460063082842,-1982,-1950,-2168,3826,311,100684
11:53:36.369,19838,216.796875,635.7421875,-599.609375,0.4459316238845512,0.06475171524898964,-1.1777481792457736,-1987,-1945,-2168,3826,311,100684
11:53:36.379,19839,206.0546875,719.7265625,-587.890625,0.3909537524467298,0.15271630954950383,-1.1936306754389219,-1986,-1941,-2174,3826,311,100684
11:53:36.399,19840,212.890625,793.9453125,-517.578125,0.3811799086355616,0.28344147052387914,-1.2498302773531396,-1996,-1938,-2168,3826,311,100684
11:53:36.420,19841,208.0078125,861.328125,-514.6484375,0.7391469382195985,0.36651914291880927,-1.2608258516407038,-1987,-1936,-2167,3826,311,100684
11:53:36.440,19842,178.7109375,858.3984375,-549.8046875,1.0848966630396752,0.39950586578150205,-1.2217304763960306,-2003,-1943,-2160,3826,311,100684
11:53:36.461,19843,138.671875,770.5078125,-561.5234375,1.029918791601854,0.43860124102617504,-1.1838568316277538,-2004,-1948,-2159,3826,311,100684
11:53:36.471,19844,151.3671875,687.5,-633.7890625,0.836885376331281,0.41050144006906636,-1.1997393278209023,-2013,-1951,-2158,3826,311,100684
11:53:36.491,19845,156.25,738.28125,-687.5,0.8564330639536176,0.3029891581462157,-1.230282589730803,-2010,-1951,-2151,3826,311,100684
11:53:36.512,19846,149.4140625,780.2734375,-671.875,0.8100073058505685,0.27611108766550296,-1.2657127735462879,-2017,-1954,-2159,3826,311,100684
11:53:36.532,19847,123.046875,749.0234375,-705.078125,0.553443905807402,0.3017674276698196,-1.231504320207199,-2022,-1957,-2134,3826,311,100684
11:53:36.542,19848,75.1953125,724.609375,-739.2578125,0.35918876006043304,0.31764992386296803,-1.233947781159991,-2020,-1951,-2144,3826,311,100684
11:53:36.563,19849,41.015625,738.28125,-754.8828125,0.40927970959267035,0.3323106895797204,-1.2669345040226838,-2026,-1953,-2142,3826,311,100684
11:53:36.583,19850,45.8984375,764.6484375,-696.2890625,0.5998696639104512,0.32131511529215606,-1.2461650859239515,-2032,-1955,-2141,3826,311,100684
11:53:36.604,19851,69.3359375,773.4375,-667.96875,0.8466592201424493,0.3787364476827696,-1.2815952697394362,-2039,-1957,-2139,3826,311,100684
11:53:36.625,19852,61.5234375,734.375,-698.2421875,1.0103711039795176,0.43493604959698695,-1.3072516097437528,-2032,-1958,-2134,3826,311,100684
11:53:36.635,19853,22.4609375,650.390625,-739.2578125,0.8283332629965089,0.4569271981721155,-1.303586418314565,-2040,-1965,-2129,3826,311,100684
11:53:36.655,19854,17.578125,628.90625,-723.6328125,0.7501425125071629,0.39828413530510604,-1.303586418314565,-2046,-1969,-2124,3826,311,100684
11:53:36.676,19855,261.71875,531.25,-780.2734375,0.4850269991292242,0.3090978105281958,-1.2351695116363872,-2047,-1969,-2120,3826,311,100684
11:53:36.706,19856,46.875,457.03125,-796.875,0.3103195410045918,0.2748893571891069,-1.0983356982800316,-2054,-1979,-2123,3826,311,100684
11:53:36.727,19857,27.34375,380.859375,-796.875,0.05375614096142535,0.22602013813326569,-0.8772024820523501,-2057,-1973,-2120,3826,311,100684
11:53:36.747,19858,57.6171875,327.1484375,-764.6484375,-0.11728612573401895,0.17226399717184035,-0.7049384848805097,-2055,-1974,-2133,3826,311,100684
11:53:36.767,19859,101.5625,276.3671875,-763.671875,-0.10995574287564278,0.12583823906879116,-0.555887366760194,-2060,-1975,-2127,3826,311,100684
11:53:36.788,19860,121.09375,187.5,-826.171875,-0.0635299847725936,0.03420845333908886,-0.3445279943436807,-2058,-1977,-2120,3826,311,100684
11:53:36.798,19861,121.09375,139.6484375,-878.90625,-0.024434609527920613,-0.03054326190990077,-0.16859880574265224,-2064,-1972,-2124,3826,311,100684
11:53:36.818,19862,146.484375,138.671875,-855.46875,-0.18570303241219668,-0.07819075048934597,-0.03054326190990077,-2044,-1962,-2123,3826,311,100684
11:53:36.839,19863,141.6015625,187.5,-821.2890625,-0.21258110289290938,-0.08552113334772216,0.10995574287564278,-2059,-1971,-2128,3826,311,100684
11:53:36.859,19864,123.046875,218.75,-843.75,-0.05009094953223726,-0.1307251609743753,0.2419026343264141,-2063,-1975,-2115,3826,311,100684
11:53:36.869,19865,96.6796875,194.3359375,-823.2421875,0.09040805525330627,-0.16249015336067207,0.40927970959267035,-2061,-1971,-2133,3826,311,100684
11:53:36.890,19866,89.84375,267.578125,-799.8046875,0.01832595714594046,-0.15271630954950383,0.5937610115284709,-2057,-1970,-2134,3826,311,100684
11:53:36.911,19867,78.125,338.8671875,-744.140625,-0.0024434609527920616,-0.17959438003021652,0.8283332629965089,-2057,-1971,-2132,3826,311,100684
11:53:36.931,19868,94.7265625,358.3984375,-761.71875,0.019547687622336492,-0.16249015336067207,1.0861183935160714,-2053,-1975,-2141,3826,311,100684
11:53:36.952,19869,62.5,358.3984375,-826.171875,0.10873401239924674,-0.2577851305195625,1.3707815945163466,-2040,-1972,-2123,3826,311,100684
11:53:36.963,19870,58.59375,369.140625,-767.578125,-0.1111774733520388,-0.3017674276698196,1.5210544431130584,-2046,-1982,-2131,3826,311,100684
11:53:36.983,19871,82.03125,438.4765625,-661.1328125,-0.4789183467472441,-0.32375857624494814,1.6468926821818495,-2043,-1977,-2136,3826,311,100684
11:53:37.3,19872,148.4375,543.9453125,-695.3125,-0.5839871677173026,-0.38362336958835364,1.7678439993450565,-2037,-1983,-2134,3826,311,100684
11:53:37.23,19873,115.234375,663.0859375,-761.71875,-0.5742133239061344,-0.4276056667386108,1.7617353469630763,-2021,-1981,-2128,3826,311,100684
11:53:37.33,19874,107.421875,749.0234375,-679.6875,-0.7660250087003113,-0.4276056667386108,1.6261232640831171,-2028,-1979,-2132,3826,311,100684
11:53:37.54,19875,97.65625,787.109375,-569.3359375,-0.9871582249279928,-0.40072759625789806,1.5112805993018898,-2022,-1979,-2140,3826,311,100684
11:53:37.74,19876,173.828125,836.9140625,-574.21875,-0.9272934315845873,-0.35674529910764097,1.466076571675237,-2019,-1975,-2138,3826,311,100684
11:53:37.95,19877,162.109375,876.953125,-613.28125,-0.910189204915043,-0.2553416695667704,1.4416419621473162,-2016,-1975,-2140,3820,311,100679
11:53:37.115,19878,125.9765625,852.5390625,-632.8125,-0.984714763975201,-0.2516764781375823,1.3524556373704062,-2014,-1969,-2144,3820,311,100679
11:53:37.125,19879,130.859375,972.65625,-594.7265625,-1.0433578268422103,-0.2541199390903744,1.1765264487693778,-1998,-1963,-2146,3820,311,100679
11:53:37.206,19880,155.2734375,1053.7109375,-554.6875,-1.0067059125503293,-0.20402898955813717,0.9028588220566667,-1995,-1969,-2147,3820,311,100679
11:53:37.216,19881,135.7421875,1030.2734375,-616.2109375,-0.831998454425697,-0.17226399717184035,0.8466592201424493,-1998,-1964,-2156,3820,311,100679
11:53:37.237,19882,99.609375,955.078125,-684.5703125,-0.6853907972581733,-0.11362093430483088,0.7977900010866079,-1995,-1951,-2156,3820,311,100679
11:53:37.257,19883,79.1015625,1007.8125,-673.828125,-0.6719517620178169,-0.16493361431346415,0.6658431096358368,-1986,-1952,-2160,3820,311,100679
11:53:37.277,19884,102.5390625,1085.9375,-616.2109375,-0.5546656362837981,-0.1429424657383356,0.43860124102617504,-1987,-1953,-2157,3820,311,100679
11:53:37.288,19885,137.6953125,1021.484375,-637.6953125,-0.37507125625358145,-0.1466076571675237,0.3384193419617005,-1971,-1942,-2165,3820,311,100679
11:53:37.308,19886,118.1640625,966.796875,-660.15625,-0.20891591146372127,-0.0830776723949301,0.3200933848157601,-1987,-1944,-2161,3820,311,100679
11:53:37.329,19887,106.4453125,896.484375,-688.4765625,-0.1551597705022959,-0.12095131716320705,0.2138028333693054,-1978,-1943,-2172,3820,311,100679
11:53:37.349,19888,136.71875,894.53125,-670.8984375,-0.11239920382843484,-0.1233947781159991,0.09651670763528641,-1989,-1943,-2163,3820,311,100679
11:53:37.370,19889,143.5546875,878.90625,-655.2734375,-0.06475171524898964,-0.12461650859239513,0.04153883619746505,-1989,-1949,-2165,3820,311,100679
11:53:37.380,19890,149.4140625,855.46875,-614.2578125,-0.019547687622336492,-0.1270599695451872,0.009773843811168246,-1986,-1942,-2175,3820,311,100679
11:53:37.400,19891,138.671875,830.078125,-595.703125,0.04398229715025711,-0.16126842288427604,-0.004886921905584123,-1991,-1946,-2170,3820,311,100679
11:53:37.420,19892,157.2265625,765.625,-614.2578125,0.05497787143782139,-0.13194689145077132,-0.024434609527920613,-1990,-1947,-2166,3820,311,100679
11:53:37.492,19893,148.4375,750.9765625,-602.5390625,0.021991148575128554,-0.14538592669112765,-0.013439035240356337,-1991,-1945,-2166,3820,311,100679
11:53:37.513,19894,164.0625,726.5625,-598.6328125,-0.020769418098732523,-0.14538592669112765,-0.0012217304763960308,-1991,-1951,-2171,3820,311,100679
11:53:37.533,19895,166.9921875,727.5390625,-594.7265625,-0.03298672286269283,-0.13805554383275148,0.0158824961931484,-1994,-1948,-2171,3820,311,100679
11:53:37.543,19896,166.9921875,704.1015625,-598.6328125,-0.04520402762665313,-0.14416419621473164,0.06108652381980154,-1991,-1947,-2165,3820,311,100679
11:53:37.564,19897,192.3828125,675.78125,-613.28125,-0.08796459430051422,-0.16004669240788005,0.11850785621041499,-1991,-1943,-2161,3820,311,100679
11:53:37.584,19898,218.75,663.0859375,-627.9296875,-0.10873401239924674,-0.17226399717184035,0.15638150097869194,-1996,-1945,-2166,3820,311,100679
11:53:37.605,19899,239.2578125,643.5546875,-630.859375,-0.12950343049797927,-0.20891591146372127,0.1942551457469689,-1998,-1942,-2174,3820,311,100679
11:53:37.615,19900,253.90625,598.6328125,-629.8828125,-0.1954768762233649,-0.2675589743307307,0.3078760800517997,-1998,-1942,-2159,3820,311,100679
11:53:37.635,19901,260.7421875,554.6875,-626.953125,-0.2614503219487506,-0.3103195410045918,0.4410447019789671,-1978,-1936,-2158,3820,311,100679
11:53:37.655,19902,250.9765625,532.2265625,-670.8984375,-0.40927970959267035,-0.3652974124424132,0.6145304296272034,-2000,-1938,-2164,3820,311,100679
11:53:37.676,19903,236.328125,529.296875,-667.96875,-0.5864306286700948,-0.42394047530942264,0.7342600163140146,-1997,-1940,-2168,3820,311,100679
11:53:37.696,19904,264.6484375,582.03125,-642.578125,-0.755029434412747,-0.5253441048502933,0.8759807515759541,-1998,-1938,-2163,3820,311,100679
11:53:37.706,19905,252.9296875,647.4609375,-616.2109375,-0.9040805525330627,-0.6414085001079162,0.9773843811168247,-1991,-1939,-2155,3820,311,100679
11:53:37.727,19906,232.421875,728.515625,-601.5625,-0.995710338262765,-0.7794640439406676,1.0519099401769825,-1993,-1931,-2172,3820,311,100679
11:53:37.747,19907,208.984375,808.59375,-573.2421875,-1.0775662801812993,-0.8637634468119937,1.1105530030439918,-1993,-1936,-2168,3820,311,100679
11:53:37.767,19908,190.4296875,900.390625,-555.6640625,-1.1264354992371404,-0.9162978572970231,1.121548577331556,-1991,-1926,-2182,3820,311,100679
11:53:37.788,19909,178.7109375,982.421875,-508.7890625,-1.0861183935160714,-0.9443976582541318,1.0787880106576953,-1992,-1926,-2183,3820,311,100679
11:53:37.798,19910,177.734375,1037.109375,-497.0703125,-0.9688322677820524,-0.9993755296919531,1.0494664792241903,-1996,-1924,-2188,3820,311,100679
11:53:37.818,19911,140.625,1120.1171875,-505.859375,-0.7819075048934596,-1.0018189906447452,0.992045146833577,-1979,-1920,-2192,3820,311,100679
11:53:37.839,19912,118.1640625,1166.015625,-509.765625,-0.6084217772452234,-0.9224065096790033,0.8600982553828056,-1992,-1916,-2196,3820,311,100679
11:53:37.911,19913,138.671875,1210.9375,-468.75,-0.39217548292312593,-0.8356636458548851,0.6633996486830448,-1992,-1916,-2184,3820,311,100679
11:53:37.931,19914,147.4609375,1226.5625,-416.9921875,-0.20525072003453318,-0.7073819458333017,0.45204027626653137,-1997,-1915,-2189,3820,311,100679
11:53:37.952,19915,137.6953125,1176.7578125,-454.1015625,-0.17470745812463243,-0.7269296334556383,0.28099800957108706,-1998,-1920,-2174,3820,311,100679
11:53:37.962,19916,131.8359375,1085.9375,-467.7734375,-0.048869219055841226,-0.6743952229706089,0.13805554383275148,-2005,-1920,-2182,3820,311,100679
11:53:37.982,19917,184.5703125,1103.515625,-443.359375,0.10629055144645469,-0.4948008429403924,-0.06230825429619757,-2009,-1916,-2181,3820,311,100679
11:53:38.3,19918,196.2890625,1121.09375,-417.96875,0.2223549467040776,-0.4324925886441948,-0.33108895910332437,-2008,-1920,-2171,3820,311,100679
11:53:38.23,19919,181.640625,1097.65625,-441.40625,0.3457497248200767,-0.395840674352314,-0.476474885794452,-2013,-1916,-2169,3820,311,100679
11:53:38.43,19920,196.2890625,1114.2578125,-430.6640625,0.3286454981505323,-0.3677408733952052,-0.6670648401122328,-2023,-1922,-2180,3820,311,100679
11:53:38.54,19921,132.8125,890.625,-492.1875,-0.021991148575128554,-0.3042108886226117,-0.7367034772668065,-2028,-1922,-2163,3820,311,100679
11:53:38.74,19922,186.5234375,892.578125,-503.90625,0.2651155133779387,-0.2651155133779387,-0.8784242125287461,-2038,-1917,-2158,3820,311,100679
11:53:38.94,19923,202.1484375,982.421875,-454.1015625,0.37507125625358145,-0.21991148575128555,-1.0922270458980516,-2039,-1920,-2167,3820,311,100679
11:53:38.115,19924,156.25,1014.6484375,-393.5546875,0.5204571829447091,-0.04031710572106901,-1.2498302773531396,-2053,-1924,-2162,3820,311,100679
11:53:38.125,19925,140.625,989.2578125,-437.5,0.6230825429619757,0.04153883619746505,-1.2657127735462879,-2048,-1919,-2152,3820,311,100679
11:53:38.146,19926,86.9140625,885.7421875,-507.8125,0.5314527572322734,0.058643062867009474,-1.2767083478338521,-2061,-1920,-2159,3820,311,100679
11:53:38.166,19927,125.0,825.1953125,-535.15625,0.5827654372409066,-0.0024434609527920616,-1.390329282138683,-2068,-1921,-2156,3820,311,100681
11:53:38.186,19928,146.484375,781.25,-531.25,0.6731734924942129,-0.2871066619530672,-1.4184290830957917,-2077,-1925,-2157,3820,311,100681
11:53:38.207,19929,89.84375,712.890625,-495.1171875,0.5681046715241543,0.03420845333908886,-1.2046262497264864,-2066,-1922,-2145,3820,311,100681
11:53:38.217,19930,103.515625,637.6953125,-515.625,0.5351179486614615,0.039095375244672985,-0.992045146833577,-2088,-1932,-2145,3820,311,100681
11:53:38.238,19931,85.9375,541.9921875,-594.7265625,0.4825835381764321,-0.026878070480712675,-0.7770205829878756,-2100,-1930,-2146,3820,311,100681
11:53:38.258,19932,101.5625,446.2890625,-636.71875,0.29810223624063154,-0.1075122819228507,-0.6230825429619757,-2100,-1934,-2152,3820,311,100681
11:53:38.279,19933,92.7734375,359.375,-634.765625,0.09162978572970232,-0.13316862192716736,-0.4544837372193235,-2104,-1936,-2138,3820,311,100681
11:53:38.299,19934,114.2578125,319.3359375,-655.2734375,-0.025656340004316647,-0.13683381335635544,-0.27977627909469105,-2110,-1938,-2139,3820,311,100681
11:53:38.310,19935,74.21875,306.640625,-670.8984375,-0.11728612573401895,-0.11606439525762292,-0.0867428638241182,-2110,-1939,-2134,3820,311,100681
11:53:38.330,19936,68.359375,341.796875,-677.734375,-0.06963863715457375,-0.11606439525762292,0.010995574287564277,-2114,-1942,-2144,3820,311,100681
11:53:38.350,19937,79.1015625,395.5078125,-614.2578125,0.007330382858376184,-0.14049900478554353,0.1343903524035634,-2113,-1939,-2142,3820,311,100681
11:53:38.371,19938,89.84375,474.609375,-607.421875,0.008552113334772215,-0.12217304763960309,0.27733281814189903,-2108,-1933,-2139,3820,311,100681
11:53:38.401,19939,60.546875,532.2265625,-626.953125,-0.0635299847725936,-0.10506882097005865,0.40317105721069013,-2101,-1933,-2136,3820,311,100681
11:53:38.422,19940,20.5078125,561.5234375,-541.015625,-0.1233947781159991,-0.05619960191421742,0.5400048705670456,-2110,-1936,-2141,3820,311,100681
11:53:38.442,19941,31.25,610.3515625,-506.8359375,-0.2516764781375823,-0.06597344572538566,0.7721336610822913,-2107,-1934,-2140,3820,311,100681
11:53:38.463,19942,75.1953125,617.1875,-452.1484375,-0.40194932673429407,0.051312680008633295,0.950506310636112,-2104,-1940,-2136,3820,311,100681
11:53:38.473,19943,116.2109375,630.859375,-478.515625,-0.48991392103480835,0.1392772743091475,1.1301006906663282,-2098,-1935,-2143,3820,311,100681
11:53:38.494,19944,98.6328125,736.328125,-541.9921875,-0.4825835381764321,0.14538592669112765,1.2229522068724268,-2085,-1932,-2145,3820,311,100681
11:53:38.514,19945,58.59375,731.4453125,-439.453125,-0.5119050696099369,0.16859880574265224,1.2376129725891793,-2084,-1932,-2145,3820,311,100681
11:53:38.534,19946,102.5390625,704.1015625,-378.90625,-0.5827654372409066,0.2504547476611863,1.317025453554921,-2049,-1921,-2156,3820,311,100681
11:53:38.544,19947,155.2734375,791.015625,-454.1015625,-0.5314527572322734,0.31520646291017596,1.3976596649970594,-2066,-1928,-2167,3820,311,100681
11:53:38.565,19948,166.015625,916.015625,-513.671875,-0.3628539514896212,0.39461894387591795,1.3145819926021292,-2059,-1930,-2152,3820,311,100681
11:53:38.585,19949,180.6640625,946.2890625,-383.7890625,-0.24923301718479027,0.4654793115068877,1.194852405915318,-2032,-1920,-2161,3820,311,100681
11:53:38.606,19950,219.7265625,875.0,-428.7109375,-0.23212879051524585,0.63407811724954,1.1227703078079523,-2024,-1923,-2165,3820,311,100681
11:53:38.626,19951,275.390625,943.359375,-500.0,-0.15393804002589986,0.6829473363053812,0.9786061115932208,-2031,-1927,-2162,3820,311,100681
11:53:38.636,19952,248.046875,1043.9453125,-536.1328125,-0.10629055144645469,0.6169738905799955,0.7452555906015788,-2012,-1930,-2171,3820,311,100681
11:53:38.657,19953,204.1015625,1041.9921875,-541.015625,-0.1307251609743753,0.5998696639104512,0.5717698629533424,-1992,-1920,-2163,3820,311,100681
11:53:38.677,19954,244.140625,1006.8359375,-520.5078125,-0.15149457907310784,0.6963863715457376,0.4398229715025711,-2007,-1929,-2176,3820,311,100681
11:53:38.697,19955,264.6484375,1097.65625,-591.796875,-0.12217304763960309,0.560774288665778,0.3909537524467298,-1999,-1930,-2179,3820,311,100681
11:53:38.718,19956,249.0234375,1159.1796875,-568.359375,0.04276056667386108,0.46670104198328377,0.22846359908605776,-1988,-1931,-2178,3820,311,100681
11:53:38.728,19957,258.7890625,1144.53125,-571.2890625,0.0867428638241182,0.4691445029360758,0.1148426647812269,-1978,-1928,-2191,3820,311,100681
11:53:38.748,19958,289.0625,1059.5703125,-572.265625,0.021991148575128554,0.4703662334124718,-0.01832595714594046,-1978,-1929,-2177,3820,311,100681
11:53:38.769,19959,287.109375,1000.9765625,-625.9765625,0.003665191429188092,0.33108895910332437,-0.003665191429188092,-1977,-1934,-2179,3820,311,100681
11:53:38.789,19960,266.6015625,999.0234375,-620.1171875,0.0476474885794452,0.2553416695667704,-0.004886921905584123,-1966,-1932,-2179,3820,311,100681
11:53:38.810,19961,253.90625,909.1796875,-614.2578125,-0.0671951762017817,0.17470745812463243,-0.008552113334772215,-1972,-1930,-2190,3820,311,100681
11:53:38.820,19962,303.7109375,879.8828125,-569.3359375,-0.052534410485029326,0.10262536001726659,-0.023212879051524585,-1973,-1935,-2197,3820,311,100681
11:53:38.841,19963,311.5234375,865.234375,-550.78125,0.02809980095710871,0.03665191429188092,-0.014660765716752368,-1972,-1934,-2196,3820,311,100681
11:53:38.861,19964,301.7578125,829.1015625,-537.109375,0.09162978572970232,-0.0158824961931484,-0.02809980095710871,-1974,-1932,-2187,3820,311,100681
11:53:38.882,19965,302.734375,797.8515625,-516.6015625,0.06841690667817772,-0.019547687622336492,-0.024434609527920613,-1968,-1932,-2202,3820,311,100681
11:53:38.892,19966,302.734375,772.4609375,-493.1640625,0.05375614096142535,0.010995574287564277,-0.02809980095710871,-1971,-1930,-2194,3820,311,100681
11:53:38.912,19967,314.453125,754.8828125,-497.0703125,0.06475171524898964,-0.010995574287564277,-0.01710422666954443,-1969,-1929,-2193,3820,311,100681
