Timestamp,SampleNr,AccX [mg],AccY [mg],AccZ [mg],GyrX [rad/s],GyrY [rad/s],GyrZ [rad/s],MagX [mGs],MagY [mGs],-MagZ [mGs],Battery [mV],Temperature [0.1C],Pressure[Pa]
12:18:26.745,16847,266.6015625,568.359375,-765.625,-0.05742133239061345,-0.0635299847725936,-0.06841690667817772,-1655,-506,716,4036,333,100685
12:18:26.755,16848,257.8125,558.59375,-771.484375,-0.06597344572538566,-0.052534410485029326,-0.058643062867009474,-1655,-506,716,4036,333,100685
12:18:26.776,16849,255.859375,570.3125,-762.6953125,-0.06475171524898964,-0.052534410485029326,-0.06108652381980154,-1650,-498,709,4036,333,100685
12:18:26.796,16850,251.953125,569.3359375,-774.4140625,-0.05009094953223726,-0.03665191429188092,-0.06230825429619757,-1650,-498,709,4036,333,100685
12:18:26.806,16851,248.046875,582.03125,-770.5078125,-0.0635299847725936,-0.04031710572106901,-0.05619960191421742,-1650,-498,709,4036,333,100685
12:18:26.827,16852,250.9765625,585.9375,-767.578125,-0.023212879051524585,-0.051312680008633295,-0.05986479334340551,-1650,-498,709,4024,333,100686
12:18:26.847,16853,250.9765625,597.65625,-756.8359375,-0.039095375244672985,-0.04520402762665313,-0.0671951762017817,-1650,-498,709,4024,333,100686
12:18:26.868,16854,247.0703125,597.65625,-750.0,-0.07574728953655392,-0.05497787143782139,-0.058643062867009474,-1653,-497,710,4024,333,100686
12:18:26.878,16855,249.0234375,588.8671875,-758.7890625,-0.08063421144213802,-0.051312680008633295,-0.07086036763096978,-1653,-497,710,4024,333,100686
12:18:26.899,16856,259.765625,596.6796875,-762.6953125,-0.10018189906447451,-0.051312680008633295,-0.07208209810736582,-1653,-497,710,4024,333,100686
12:18:26.919,16857,249.0234375,594.7265625,-768.5546875,-0.1233947781159991,-0.04153883619746505,-0.06597344572538566,-1653,-497,710,4024,333,100686
12:18:26.940,16858,243.1640625,601.5625,-753.90625,-0.058643062867009474,-0.05742133239061345,-0.05986479334340551,-1653,-497,710,4024,333,100686
12:18:26.950,16859,250.0,590.8203125,-748.046875,-0.05497787143782139,-0.0635299847725936,-0.07941248096574201,-1652,-499,710,4024,333,100686
12:18:26.970,16860,250.9765625,582.03125,-757.8125,-0.07330382858376185,-0.05375614096142535,-0.0671951762017817,-1652,-499,710,4024,333,100686
12:18:26.991,16861,250.0,611.328125,-743.1640625,-0.11606439525762292,-0.06230825429619757,-0.05986479334340551,-1652,-499,710,4024,333,100686
12:18:27.11,16862,245.1171875,607.421875,-762.6953125,-0.06597344572538566,-0.06230825429619757,-0.05619960191421742,-1652,-499,710,4024,333,100686
12:18:27.83,16863,246.09375,617.1875,-765.625,-0.05375614096142535,-0.06597344572538566,-0.052534410485029326,-1653,-495,710,4024,333,100686
12:18:27.103,16864,248.046875,618.1640625,-750.9765625,-0.048869219055841226,-0.07208209810736582,-0.058643062867009474,-1653,-495,710,4024,333,100686
12:18:27.123,16865,243.1640625,594.7265625,-759.765625,-0.009773843811168246,-0.06597344572538566,-0.026878070480712675,-1653,-495,710,4024,333,100686
12:18:27.133,16866,249.0234375,598.6328125,-761.71875,-0.03054326190990077,-0.0635299847725936,-0.021991148575128554,-1653,-495,710,4024,333,100686
12:18:27.154,16867,244.140625,620.1171875,-759.765625,-0.019547687622336492,-0.051312680008633295,-0.03420845333908886,-1653,-495,710,4024,333,100686
12:18:27.174,16868,237.3046875,616.2109375,-765.625,0.0024434609527920616,-0.05497787143782139,-0.03054326190990077,-1658,-496,709,4024,333,100686
12:18:27.195,16869,239.2578125,609.375,-770.5078125,0.014660765716752368,-0.05619960191421742,-0.013439035240356337,-1658,-496,709,4024,333,100686
12:18:27.215,16870,240.234375,606.4453125,-759.765625,0.0024434609527920616,-0.04031710572106901,-0.008552113334772215,-1658,-496,709,4024,333,100686
12:18:27.226,16871,235.3515625,592.7734375,-764.6484375,0.0158824961931484,-0.0158824961931484,-0.020769418098732523,-1658,-496,709,4024,333,100686
12:18:27.246,16872,231.4453125,603.515625,-761.71875,-0.008552113334772215,-0.03054326190990077,0.004886921905584123,-1658,-496,709,4024,333,100686
12:18:27.267,16873,245.1171875,609.375,-762.6953125,0.0024434609527920616,-0.01832595714594046,0.0,-1654,-497,697,4024,333,100686
12:18:27.287,16874,235.3515625,602.5390625,-761.71875,0.020769418098732523,-0.013439035240356337,0.003665191429188092,-1654,-497,697,4024,333,100686
12:18:27.298,16875,236.328125,617.1875,-764.6484375,0.01710422666954443,-0.006108652381980153,0.0024434609527920616,-1654,-497,697,4024,333,100686
12:18:27.318,16876,241.2109375,610.3515625,-755.859375,0.0012217304763960308,-0.010995574287564277,0.023212879051524585,-1654,-497,697,4024,333,100686
12:18:27.339,16877,243.1640625,586.9140625,-758.7890625,-0.029321531433504737,-0.014660765716752368,0.020769418098732523,-1653,-499,708,4024,333,100686
12:18:27.359,16878,246.09375,593.75,-758.7890625,-0.058643062867009474,-0.004886921905584123,0.01710422666954443,-1653,-499,708,4024,333,100686
12:18:27.380,16879,250.9765625,611.328125,-750.9765625,-0.0024434609527920616,-0.009773843811168246,0.023212879051524585,-1653,-499,708,4024,333,100686
12:18:27.390,16880,241.2109375,608.3984375,-749.0234375,0.029321531433504737,-0.0158824961931484,0.0317649923862968,-1653,-499,708,4024,333,100686
12:18:27.410,16881,245.1171875,573.2421875,-756.8359375,0.03054326190990077,-0.026878070480712675,0.04031710572106901,-1653,-499,708,4024,333,100686
12:18:27.431,16882,239.2578125,598.6328125,-758.7890625,0.004886921905584123,-0.0476474885794452,0.04153883619746505,-1660,-499,706,4024,333,100686
12:18:27.451,16883,248.046875,592.7734375,-754.8828125,0.03054326190990077,-0.026878070480712675,0.006108652381980153,-1660,-499,706,4024,333,100686
12:18:27.461,16884,249.0234375,592.7734375,-747.0703125,-0.019547687622336492,-0.0476474885794452,0.0158824961931484,-1660,-499,706,4024,333,100686
12:18:27.482,16885,240.234375,609.375,-750.9765625,-0.0024434609527920616,-0.052534410485029326,0.023212879051524585,-1660,-499,706,4024,333,100686
12:18:27.502,16886,250.0,609.375,-752.9296875,0.025656340004316647,-0.04153883619746505,0.003665191429188092,-1660,-499,706,4024,333,100686
12:18:27.522,16887,247.0703125,589.84375,-769.53125,0.009773843811168246,-0.048869219055841226,-0.004886921905584123,-1661,-500,706,4024,333,100686
12:18:27.542,16888,250.0,582.03125,-761.71875,-0.013439035240356337,-0.04276056667386108,-0.023212879051524585,-1661,-500,706,4024,333,100686
12:18:27.553,16889,240.234375,598.6328125,-751.953125,-0.004886921905584123,-0.05009094953223726,-0.0012217304763960308,-1661,-500,706,4024,333,100686
12:18:27.573,16890,241.2109375,603.515625,-761.71875,0.03787364476827696,-0.04520402762665313,-0.013439035240356337,-1661,-500,706,4024,333,100686
12:18:27.593,16891,242.1875,596.6796875,-766.6015625,0.03543018381548489,-0.03665191429188092,-0.021991148575128554,-1652,-496,720,4024,333,100686
12:18:27.614,16892,246.09375,594.7265625,-765.625,0.058643062867009474,-0.04520402762665313,-0.009773843811168246,-1652,-496,720,4024,333,100686
12:18:27.634,16893,245.1171875,601.5625,-773.4375,0.10140362954087055,-0.052534410485029326,0.014660765716752368,-1652,-496,720,4024,333,100686
12:18:27.645,16894,242.1875,597.65625,-768.5546875,0.1392772743091475,-0.05986479334340551,0.014660765716752368,-1652,-496,720,4024,333,100686
12:18:27.665,16895,246.09375,565.4296875,-756.8359375,0.09773843811168245,-0.05009094953223726,-0.0012217304763960308,-1652,-496,720,4024,333,100686
12:18:27.686,16896,249.0234375,565.4296875,-762.6953125,0.03665191429188092,-0.05375614096142535,-0.009773843811168246,-1658,-509,714,4024,333,100686
12:18:27.716,16897,252.9296875,591.796875,-760.7421875,0.0158824961931484,-0.05619960191421742,0.0,-1658,-509,714,4024,333,100686
12:18:27.737,16898,245.1171875,579.1015625,-758.7890625,0.012217304763960306,-0.0635299847725936,-0.004886921905584123,-1658,-509,714,4024,333,100686
12:18:27.757,16899,233.3984375,562.5,-755.859375,0.025656340004316647,-0.07452555906015788,-0.014660765716752368,-1658,-509,714,4024,333,100686
12:18:27.777,16900,240.234375,561.5234375,-756.8359375,0.06475171524898964,-0.0952949771588904,-0.021991148575128554,-1658,-509,714,4024,333,100686
12:18:27.798,16901,249.0234375,575.1953125,-746.09375,0.009773843811168246,-0.10873401239924674,-0.03665191429188092,-1653,-504,720,4024,333,100686
12:18:27.808,16902,243.1640625,569.3359375,-725.5859375,-0.01710422666954443,-0.11362093430483088,-0.04520402762665313,-1653,-504,720,4024,333,100682
12:18:27.828,16903,240.234375,572.265625,-746.09375,0.025656340004316647,-0.12950343049797927,-0.039095375244672985,-1653,-504,720,4024,333,100682
12:18:27.849,16904,241.2109375,586.9140625,-773.4375,0.0635299847725936,-0.1343903524035634,-0.0635299847725936,-1653,-504,720,4024,333,100682
12:18:27.869,16905,226.5625,575.1953125,-769.53125,0.03787364476827696,-0.1356120828799594,-0.08552113334772216,-1653,-504,720,4024,333,100682
12:18:27.879,16906,234.375,587.890625,-761.71875,0.08063421144213802,-0.15760323145508798,-0.07696902001294993,-1656,-504,715,4024,333,100682
12:18:27.899,16907,235.3515625,572.265625,-782.2265625,0.07696902001294993,-0.13316862192716736,-0.07574728953655392,-1656,-504,715,4024,333,100682
12:18:27.920,16908,225.5859375,556.640625,-783.203125,0.023212879051524585,-0.1343903524035634,-0.08185594191853407,-1656,-504,715,4024,333,100682
12:18:27.941,16909,226.5625,570.3125,-769.53125,0.01710422666954443,-0.11606439525762292,-0.0671951762017817,-1656,-504,715,4024,333,100682
12:18:27.961,16910,225.5859375,580.078125,-781.25,0.051312680008633295,-0.12217304763960309,-0.06475171524898964,-1664,-511,714,4024,333,100682
12:18:27.992,16911,224.609375,587.890625,-773.4375,0.0671951762017817,-0.12583823906879116,-0.05742133239061345,-1664,-511,714,4024,333,100682
12:18:28.12,16912,220.703125,547.8515625,-757.8125,0.07086036763096978,-0.12217304763960309,-0.05742133239061345,-1664,-511,714,4024,333,100682
12:18:28.33,16913,211.9140625,533.203125,-756.8359375,0.06230825429619757,-0.15149457907310784,-0.0476474885794452,-1664,-511,714,4024,333,100682
12:18:28.53,16914,220.703125,535.15625,-741.2109375,0.04398229715025711,-0.1820378409830086,-0.07696902001294993,-1664,-511,714,4024,333,100682
12:18:28.63,16915,225.5859375,531.25,-728.515625,0.026878070480712675,-0.2309070600388498,-0.09040805525330627,-1667,-512,708,4024,333,100682
12:18:28.83,16916,213.8671875,533.203125,-709.9609375,0.014660765716752368,-0.2919935838586513,-0.13316862192716736,-1667,-512,708,4024,333,100682
12:18:28.103,16917,208.984375,531.25,-711.9140625,-0.023212879051524585,-0.3457497248200767,-0.15760323145508798,-1667,-512,708,4024,333,100682
12:18:28.215,16918,201.171875,530.2734375,-718.75,-0.04520402762665313,-0.4043927876870862,-0.19914206765255302,-1667,-512,708,4024,333,100682
12:18:28.225,16919,182.6171875,547.8515625,-748.046875,-0.039095375244672985,-0.4398229715025711,-0.24068090385001806,-1667,-512,708,4024,333,100682
12:18:28.246,16920,167.96875,571.2890625,-752.9296875,0.01710422666954443,-0.4935791124639964,-0.26267205242514663,-1679,-512,715,4024,333,100682
12:18:28.266,16921,157.2265625,550.78125,-739.2578125,0.0830776723949301,-0.5265658353266892,-0.2822197400474831,-1679,-512,715,4024,333,100682
12:18:28.287,16922,151.3671875,534.1796875,-758.7890625,0.1270599695451872,-0.5412266010434416,-0.29932396671702755,-1679,-512,715,4024,333,100682
12:18:28.307,16923,147.4609375,541.015625,-766.6015625,0.17592918860102844,-0.5729915934297385,-0.29688050576423547,-1679,-512,715,4024,333,100682
12:18:28.317,16924,124.0234375,541.015625,-779.296875,0.3090978105281958,-0.5668829410477583,-0.3078760800517997,-1699,-522,719,4024,333,100682
12:18:28.338,16925,118.1640625,538.0859375,-767.578125,0.3286454981505323,-0.5766567848589266,-0.3127630019573839,-1699,-522,719,4024,333,100682
12:18:28.358,16926,113.28125,536.1328125,-763.671875,0.3090978105281958,-0.6035348553396392,-0.3298672286269283,-1699,-522,719,4024,333,100682
12:18:28.379,16927,97.65625,533.203125,-762.6953125,0.2712241657599188,-0.6462954220135002,-0.3274237676741363,-1699,-522,719,4024,333,100682
12:18:28.399,16928,73.2421875,522.4609375,-776.3671875,0.24068090385001806,-0.6988298324985297,-0.3384193419617005,-1699,-522,719,4024,333,100682
12:18:28.409,16929,45.8984375,541.9921875,-778.3203125,0.24068090385001806,-0.7367034772668065,-0.37018433434799736,-1730,-530,720,4024,333,100682
12:18:28.430,16930,27.34375,532.2265625,-787.109375,0.2162462943220974,-0.7880161572754398,-0.36163222101322506,-1730,-530,720,4024,333,100682
12:18:28.450,16931,11.71875,517.578125,-782.2265625,0.2345722514680379,-0.8295549934729048,-0.3677408733952052,-1730,-530,720,4024,333,100682
12:18:28.470,16932,3.90625,506.8359375,-780.2734375,0.2431243648028101,-0.8442157591896573,-0.38362336958835364,-1730,-530,720,4024,333,100682
12:18:28.481,16933,-8.7890625,517.578125,-801.7578125,0.1710422666954443,-0.8735372906231619,-0.38606683054114566,-1730,-530,720,4024,333,100682
12:18:28.501,16934,-49.8046875,523.4375,-800.78125,0.0989601685880785,-0.9028588220566667,-0.3872885610175418,-1768,-549,711,4024,333,100682
12:18:28.521,16935,-69.3359375,509.765625,-805.6640625,0.08796459430051422,-0.9175195877734192,-0.3909537524467298,-1768,-549,711,4024,333,100682
12:18:28.542,16936,-75.1953125,501.953125,-799.8046875,0.10629055144645469,-0.9065240134858548,-0.40072759625789806,-1768,-549,711,4024,333,100682
12:18:28.562,16937,-129.8828125,521.484375,-805.6640625,0.1466076571675237,-0.9248499706317953,-0.37018433434799736,-1768,-549,711,4024,333,100682
12:18:28.572,16938,-137.6953125,516.6015625,-794.921875,0.15638150097869194,-0.9712757287348445,-0.3787364476827696,-1799,-559,699,4024,333,100682
12:18:28.592,16939,-145.5078125,464.84375,-802.734375,0.05009094953223726,-1.0042624515975374,-0.43371431912059094,-1799,-559,699,4024,333,100682
12:18:28.613,16940,-189.453125,460.9375,-820.3125,-0.052534410485029326,-1.0140362954087057,-0.4410447019789671,-1799,-559,699,4024,333,100682
12:18:28.633,16941,-158.203125,519.53125,-785.15625,-0.004886921905584123,-1.0445795573186063,-0.4703662334124718,-1799,-559,699,4024,333,100682
12:18:28.653,16942,-194.3359375,504.8828125,-800.78125,0.048869219055841226,-1.067792436370131,-0.475253155318056,-1799,-559,699,4024,333,100682
12:18:28.664,16943,-265.625,459.9609375,-791.9921875,0.10018189906447451,-1.0861183935160714,-0.4679227724596798,-1845,-563,684,4024,333,100682
12:18:28.684,16944,-266.6015625,470.703125,-808.59375,0.26267205242514663,-1.0812314716104872,-0.4935791124639964,-1845,-563,684,4024,333,100682
12:18:28.704,16945,-236.328125,529.296875,-828.125,0.4398229715025711,-1.1313224211427244,-0.5314527572322734,-1845,-563,684,4024,333,100682
12:18:28.725,16946,-278.3203125,511.71875,-826.171875,0.7525859734599549,-1.1447614563830808,-0.5045746867515608,-1845,-563,684,4024,333,100682
12:18:28.745,16947,-342.7734375,414.0625,-826.171875,1.0396926354130223,-1.0934487763744476,-0.5229006438975012,-1845,-563,684,4024,333,100682
12:18:28.755,16948,-349.609375,331.0546875,-858.3984375,1.0042624515975374,-1.1252137687607444,-0.55710909723659,-1897,-584,677,4024,333,100682
12:18:28.776,16949,-363.28125,380.859375,-833.984375,0.8820894039579342,-1.194852405915318,-0.5473352534254218,-1897,-584,677,4024,333,100682
12:18:28.796,16950,-384.765625,342.7734375,-774.4140625,0.7684684696531033,-1.1887437535333378,-0.5522221753310059,-1897,-584,677,4024,333,100682
12:18:28.816,16951,-374.0234375,308.59375,-747.0703125,0.6108652381980153,-1.1704177963873974,-0.5546656362837981,-1897,-584,677,4024,333,100682
12:18:28.826,16952,-393.5546875,268.5546875,-729.4921875,0.2736676267127109,-1.1863002925805461,-0.5277875658030853,-1937,-627,658,4024,333,100682
12:18:28.847,16953,-540.0390625,250.9765625,-813.4765625,-0.04398229715025711,-1.2461650859239515,-0.5082398781807488,-1937,-627,658,4024,333,100682
12:18:28.867,16954,-526.3671875,422.8515625,-768.5546875,0.07330382858376185,-1.2620475821170998,-0.5644394800949663,-1937,-627,658,4024,333,100682
12:18:28.888,16955,-517.578125,501.953125,-726.5625,0.43615778007338296,-1.3439035240356338,-0.6487388829662923,-1937,-627,658,4024,333,100682
12:18:28.908,16956,-520.5078125,432.6171875,-667.96875,0.6096435077216195,-1.3634512116579702,-0.6414085001079162,-1937,-627,658,4024,333,100682
12:18:28.918,16957,-583.0078125,267.578125,-681.640625,0.5265658353266892,-1.4184290830957917,-0.5827654372409066,-1979,-652,630,4024,333,100682
12:18:28.938,16958,-660.15625,214.84375,-775.390625,0.2614503219487506,-1.5051719469199099,-0.5290092962794813,-1979,-652,630,4024,333,100682
12:18:28.959,16959,-641.6015625,349.609375,-727.5390625,0.3335324200561164,-1.470963493580821,-0.5302310267558774,-1979,-652,630,4024,333,100682
12:18:28.979,16960,-657.2265625,355.46875,-662.109375,0.4300491276914028,-1.470963493580821,-0.5412266010434416,-1979,-652,630,4024,333,100682
12:18:28.989,16961,-643.5546875,273.4375,-640.625,0.3335324200561164,-1.5357152088298107,-0.5265658353266892,-1979,-652,630,4024,333,100682
12:18:29.9,16962,-721.6796875,164.0625,-686.5234375,0.006108652381980153,-1.5980234631260082,-0.4923573819876005,-2026,-684,593,4024,333,100682
12:18:29.29,16963,-807.6171875,208.984375,-729.4921875,0.021991148575128554,-1.5796975059800675,-0.4557054676957195,-2026,-684,593,4024,333,100682
12:18:29.50,16964,-809.5703125,352.5390625,-701.171875,0.29932396671702755,-1.475850415486405,-0.475253155318056,-2026,-684,593,4024,333,100682
12:18:29.70,16965,-780.2734375,310.546875,-674.8046875,0.6218608124855797,-1.5369369393062067,-0.4642575810304917,-2026,-684,593,4024,333,100682
12:18:29.80,16966,-799.8046875,180.6640625,-648.4375,0.6377433086787281,-1.5735888535980878,-0.43615778007338296,-2066,-705,547,4024,333,100682
12:18:29.121,16967,-807.6171875,91.796875,-704.1015625,0.5962044724812631,-1.6004669240788003,-0.43493604959698695,-2066,-705,547,4024,333,100682
12:18:29.141,16968,-821.2890625,217.7734375,-619.140625,0.7281513639320344,-1.4929546421559494,-0.4300491276914028,-2066,-705,547,4024,333,100682
12:18:29.162,16969,-861.328125,162.109375,-595.703125,0.8967501696746865,-1.4062117783318313,-0.4300491276914028,-2066,-705,547,4024,333,100682
12:18:29.172,16970,-862.3046875,128.90625,-566.40625,0.9187413182498152,-1.4013248564262473,-0.45204027626653137,-2066,-705,547,4024,333,100682
12:18:29.192,16971,-923.828125,49.8046875,-512.6953125,0.7648032782239153,-1.356120828799594,-0.3885102914939378,-2092,-734,486,4024,333,100682
12:18:29.212,16972,-927.734375,29.296875,-479.4921875,0.5204571829447091,-1.3304644887952775,-0.34941491624926485,-2092,-734,486,4024,333,100682
12:18:29.233,16973,-883.7890625,48.828125,-462.890625,0.2419026343264141,-1.3304644887952775,-0.33964107243809655,-2092,-734,486,4024,333,100682
12:18:29.253,16974,-844.7265625,109.375,-383.7890625,-0.20402898955813717,-1.3231341059369013,-0.3029891581462157,-2092,-734,486,4024,333,100682
12:18:29.263,16975,-853.515625,114.2578125,-363.28125,-0.39217548292312593,-1.3243558364132975,-0.2871066619530672,-2092,-734,486,4024,333,100682
12:18:29.324,16976,-900.390625,141.6015625,-411.1328125,-0.41905355340383854,-1.2986994964089809,-0.31764992386296803,-2115,-759,432,4024,333,100682
12:18:29.344,16977,-939.453125,226.5625,-401.3671875,-0.32253684576855207,-1.2424998944947634,-0.3530801076784529,-2115,-759,432,4024,333,100682
12:18:29.354,16978,-990.234375,227.5390625,-385.7421875,-0.08063421144213802,-1.2095131716320704,-0.35796702958403703,-2115,-759,432,4024,333,100682
12:18:29.374,16979,-987.3046875,185.546875,-368.1640625,0.039095375244672985,-1.2205087459196347,-0.3200933848157601,-2115,-759,432,4024,333,100682
12:18:29.394,16980,-1029.296875,116.2109375,-381.8359375,0.05375614096142535,-1.2376129725891793,-0.27611108766550296,-2119,-769,380,4024,333,100682
12:18:29.415,16981,-1051.7578125,96.6796875,-400.390625,0.06230825429619757,-1.2082914411556744,-0.26022859147235455,-2119,-769,380,4024,333,100682
12:18:29.425,16982,-1039.0625,132.8125,-386.71875,0.12095131716320705,-1.1044443506620119,-0.2431243648028101,-2119,-769,380,4024,333,100682
12:18:29.446,16983,-996.09375,125.9765625,-346.6796875,0.2419026343264141,-1.0409143658894182,-0.20891591146372127,-2119,-769,380,4024,333,100682
12:18:29.466,16984,-977.5390625,114.2578125,-318.359375,0.2419026343264141,-0.994488607786369,-0.17837264955382048,-2119,-769,380,4024,333,100682
12:18:29.487,16985,-999.0234375,116.2109375,-308.59375,0.2431243648028101,-0.9419541973013398,-0.13805554383275148,-2123,-780,348,4024,333,100682
12:18:29.507,16986,-998.046875,147.4609375,-274.4140625,0.3677408733952052,-0.8600982553828056,-0.12217304763960309,-2123,-780,348,4024,333,100682
12:18:29.517,16987,-1005.859375,125.9765625,-245.1171875,0.45204027626653137,-0.8075638448977764,-0.07330382858376185,-2123,-780,348,4024,333,100682
12:18:29.538,16988,-1000.9765625,117.1875,-234.375,0.5094616086571448,-0.7672467391767073,-0.021991148575128554,-2123,-780,348,4024,333,100682
12:18:29.558,16989,-1025.390625,70.3125,-230.46875,0.4960225734167885,-0.7159340591680741,-0.006108652381980153,-2123,-780,348,4024,333,100682
12:18:29.578,16990,-1053.7109375,31.25,-230.46875,0.4569271981721155,-0.6243042734383717,-0.009773843811168246,-2125,-787,291,4024,333,100682
12:18:29.589,16991,-1041.9921875,18.5546875,-198.2421875,0.43371431912059094,-0.5632177496185702,-0.013439035240356337,-2125,-787,291,4024,333,100682
12:18:29.609,16992,-1017.578125,10.7421875,-190.4296875,0.4312708581677988,-0.5033529562751646,0.014660765716752368,-2125,-787,291,4024,333,100682
12:18:29.630,16993,-1012.6953125,10.7421875,-187.5,0.4312708581677988,-0.4288273972150068,0.025656340004316647,-2125,-787,291,4024,333,100682
12:18:29.650,16994,-1015.625,17.578125,-178.7109375,0.40927970959267035,-0.3885102914939378,0.04153883619746505,-2125,-787,291,4024,333,100682
12:18:29.681,16995,-1022.4609375,19.53125,-161.1328125,0.3885102914939378,-0.3298672286269283,0.048869219055841226,-2125,-791,262,4024,333,100682
12:18:29.702,16996,-1039.0625,29.296875,-144.53125,0.41294490102185843,-0.28344147052387914,0.05742133239061345,-2125,-791,262,4024,333,100682
12:18:29.722,16997,-1007.8125,33.203125,-136.71875,0.4434881629317592,-0.24801128670839426,0.03420845333908886,-2125,-791,262,4024,333,100682
12:18:29.742,16998,-1012.6953125,-0.0,-174.8046875,0.3469714552964728,-0.16737707526625623,0.0,-2125,-791,262,4024,333,100682
12:18:29.813,16999,-997.0703125,-17.578125,-201.171875,0.17470745812463243,-0.039095375244672985,-0.029321531433504737,-2126,-784,254,4024,333,100682
12:18:29.834,17000,-987.3046875,7.8125,-185.546875,-0.0317649923862968,0.01710422666954443,-0.026878070480712675,-2126,-784,254,4024,333,100682
12:18:29.844,17001,-985.3515625,38.0859375,-150.390625,-0.06597344572538566,0.05619960191421742,-0.0012217304763960308,-2126,-784,254,4024,333,100682
12:18:29.864,17002,-985.3515625,77.1484375,-107.421875,0.07086036763096978,0.06841690667817772,0.012217304763960306,-2126,-784,254,4024,333,100689
12:18:29.884,17003,-980.46875,71.2890625,-77.1484375,0.2223549467040776,0.07696902001294993,0.020769418098732523,-2126,-784,254,4024,333,100689
12:18:29.905,17004,-968.75,54.6875,-70.3125,0.3005456971934236,0.0671951762017817,0.021991148575128554,-2126,-783,249,4024,333,100689
12:18:29.925,17005,-974.609375,49.8046875,-70.3125,0.2663372438543347,0.0476474885794452,0.03787364476827696,-2126,-783,249,4024,333,100689
12:18:29.935,17006,-990.234375,58.59375,-55.6640625,0.1869247628885927,0.024434609527920613,0.025656340004316647,-2126,-783,249,4024,333,100689
12:18:29.956,17007,-972.65625,36.1328125,-65.4296875,0.10629055144645469,0.008552113334772215,0.013439035240356337,-2126,-783,249,4024,333,100689
12:18:29.976,17008,-972.65625,40.0390625,-83.984375,0.09285151620609834,-0.0158824961931484,-0.003665191429188092,-2126,-783,249,4024,333,100689
12:18:29.996,17009,-976.5625,36.1328125,-85.9375,0.09285151620609834,-0.04031710572106901,0.0,-2127,-777,246,4024,333,100689
12:18:30.7,17010,-979.4921875,37.109375,-91.796875,0.05742133239061345,-0.06963863715457375,0.007330382858376184,-2127,-777,246,4024,333,100689
12:18:30.27,17011,-979.4921875,33.203125,-96.6796875,0.04642575810304917,-0.0671951762017817,0.023212879051524585,-2127,-777,246,4024,333,100689
12:18:30.48,17012,-991.2109375,35.15625,-98.6328125,0.03420845333908886,-0.07941248096574201,0.024434609527920613,-2127,-777,246,4024,333,100689
12:18:30.68,17013,-996.09375,24.4140625,-109.375,0.009773843811168246,-0.10140362954087055,0.03298672286269283,-2123,-777,255,4024,333,100689
12:18:30.89,17014,-994.140625,25.390625,-125.0,-0.006108652381980153,-0.0867428638241182,0.024434609527920613,-2123,-777,255,4024,333,100689
12:18:30.99,17015,-996.09375,39.0625,-129.8828125,0.004886921905584123,-0.09040805525330627,0.021991148575128554,-2123,-777,255,4024,333,100689
12:18:30.120,17016,-997.0703125,46.875,-122.0703125,0.019547687622336492,-0.08552113334772216,0.026878070480712675,-2123,-777,255,4024,333,100689
12:18:30.140,17017,-997.0703125,50.78125,-109.375,0.052534410485029326,-0.0671951762017817,0.024434609527920613,-2123,-777,255,4024,333,100689
12:18:30.161,17018,-998.046875,38.0859375,-104.4921875,0.07208209810736582,-0.05986479334340551,0.02809980095710871,-2129,-775,239,4024,333,100689
12:18:30.181,17019,-995.1171875,40.0390625,-106.4453125,0.06841690667817772,-0.06108652381980154,0.013439035240356337,-2129,-775,239,4024,333,100689
12:18:30.192,17020,-990.234375,36.1328125,-103.515625,0.020769418098732523,-0.039095375244672985,0.003665191429188092,-2129,-775,239,4024,333,100689
12:18:30.213,17021,-995.1171875,47.8515625,-108.3984375,0.014660765716752368,-0.024434609527920613,-0.012217304763960306,-2129,-775,239,4024,333,100689
12:18:30.233,17022,-993.1640625,42.96875,-103.515625,0.0012217304763960308,-0.024434609527920613,-0.0158824961931484,-2129,-775,239,4024,333,100689
12:18:30.253,17023,-989.2578125,36.1328125,-102.5390625,0.05375614096142535,-0.020769418098732523,-0.0158824961931484,-2125,-770,255,4024,333,100689
12:18:30.263,17024,-983.3984375,24.4140625,-100.5859375,0.04031710572106901,-0.009773843811168246,-0.012217304763960306,-2125,-770,255,4024,333,100689
12:18:30.284,17025,-983.3984375,22.4609375,-99.609375,0.020769418098732523,-0.009773843811168246,-0.007330382858376184,-2125,-770,255,4024,333,100689
12:18:30.304,17026,-988.28125,31.25,-102.5390625,0.0012217304763960308,-0.010995574287564277,-0.003665191429188092,-2125,-770,255,4024,333,100689
12:18:30.324,17027,-992.1875,28.3203125,-101.5625,-0.039095375244672985,-0.021991148575128554,-0.003665191429188092,-2129,-775,244,4024,333,100689
12:18:30.344,17028,-990.234375,39.0625,-100.5859375,-0.025656340004316647,-0.012217304763960306,-0.013439035240356337,-2129,-775,244,4024,333,100689
12:18:30.355,17029,-990.234375,43.9453125,-104.4921875,-0.020769418098732523,-0.021991148575128554,0.0,-2129,-775,244,4024,333,100689
12:18:30.375,17030,-985.3515625,42.96875,-113.28125,0.008552113334772215,-0.012217304763960306,0.003665191429188092,-2129,-775,244,4024,333,100689
12:18:30.395,17031,-992.1875,41.9921875,-103.515625,-0.0012217304763960308,-0.020769418098732523,-0.0012217304763960308,-2129,-775,244,4024,333,100689
12:18:30.416,17032,-987.3046875,27.34375,-106.4453125,-0.014660765716752368,-0.026878070480712675,0.004886921905584123,-2135,-778,240,4024,333,100689
12:18:30.436,17033,-981.4453125,39.0625,-110.3515625,0.008552113334772215,-0.03665191429188092,0.009773843811168246,-2135,-778,240,4024,333,100689
12:18:30.446,17034,-983.3984375,41.015625,-99.609375,-0.012217304763960306,-0.026878070480712675,0.014660765716752368,-2135,-778,240,4024,333,100689
12:18:30.467,17035,-986.328125,42.96875,-103.515625,-0.01832595714594046,-0.03054326190990077,0.0158824961931484,-2135,-778,240,4024,333,100689
12:18:30.487,17036,-986.328125,33.203125,-111.328125,-0.004886921905584123,-0.03665191429188092,0.009773843811168246,-2135,-778,240,4024,333,100689
12:18:30.518,17037,-994.140625,39.0625,-109.375,-0.024434609527920613,-0.03298672286269283,0.01832595714594046,-2131,-779,251,4024,333,100689
12:18:30.538,17038,-994.140625,39.0625,-113.28125,-0.013439035240356337,-0.0317649923862968,0.020769418098732523,-2131,-779,251,4024,333,100689
12:18:30.559,17039,-985.3515625,41.015625,-112.3046875,-0.0012217304763960308,-0.03787364476827696,0.019547687622336492,-2131,-779,251,4024,333,100689
12:18:30.579,17040,-993.1640625,34.1796875,-109.375,0.012217304763960306,-0.03298672286269283,0.026878070480712675,-2131,-779,251,4024,333,100689
12:18:30.600,17041,-986.328125,27.34375,-109.375,0.003665191429188092,-0.03420845333908886,0.004886921905584123,-2126,-777,244,4024,333,100689
12:18:30.610,17042,-983.3984375,36.1328125,-109.375,0.009773843811168246,-0.039095375244672985,0.0,-2126,-777,244,4024,333,100689
12:18:30.630,17043,-983.3984375,38.0859375,-115.234375,-0.0158824961931484,-0.0317649923862968,-0.0012217304763960308,-2126,-777,244,4024,333,100689
12:18:30.651,17044,-990.234375,43.9453125,-105.46875,-0.012217304763960306,-0.03054326190990077,-0.004886921905584123,-2126,-777,244,4024,333,100689
12:18:30.671,17045,-984.375,40.0390625,-112.3046875,-0.004886921905584123,-0.04398229715025711,0.003665191429188092,-2126,-777,244,4024,333,100689
12:18:30.691,17046,-985.3515625,33.203125,-100.5859375,0.009773843811168246,-0.03420845333908886,0.0024434609527920616,-2130,-771,248,4024,333,100689
12:18:30.701,17047,-987.3046875,30.2734375,-113.28125,0.014660765716752368,-0.04398229715025711,-0.007330382858376184,-2130,-771,248,4024,333,100689
12:18:30.722,17048,-983.3984375,26.3671875,-120.1171875,0.004886921905584123,-0.04031710572106901,-0.008552113334772215,-2130,-771,248,4024,333,100689
12:18:30.742,17049,-981.4453125,37.109375,-114.2578125,-0.0158824961931484,-0.04398229715025711,-0.014660765716752368,-2130,-771,248,4024,333,100689
12:18:30.762,17050,-989.2578125,37.109375,-104.4921875,-0.039095375244672985,-0.052534410485029326,-0.008552113334772215,-2130,-771,248,4024,333,100689
12:18:30.793,17051,-988.28125,41.015625,-107.421875,-0.03787364476827696,-0.04153883619746505,-0.009773843811168246,-2127,-774,250,4024,333,100689
12:18:30.813,17052,-986.328125,38.0859375,-109.375,-0.02809980095710871,-0.05619960191421742,0.003665191429188092,-2127,-774,250,4030,333,100680
12:18:30.833,17053,-981.4453125,47.8515625,-118.1640625,0.01832595714594046,-0.052534410485029326,0.003665191429188092,-2127,-774,250,4030,333,100680
12:18:30.854,17054,-986.328125,47.8515625,-107.421875,0.012217304763960306,-0.04276056667386108,0.009773843811168246,-2127,-774,250,4030,333,100680
12:18:30.864,17055,-993.1640625,51.7578125,-106.4453125,0.04398229715025711,-0.052534410485029326,0.01710422666954443,-2132,-775,251,4030,333,100680
12:18:30.884,17056,-996.09375,39.0625,-105.46875,0.052534410485029326,-0.05619960191421742,0.019547687622336492,-2132,-775,251,4030,333,100680
12:18:30.904,17057,-995.1171875,25.390625,-109.375,0.0476474885794452,-0.052534410485029326,0.008552113334772215,-2132,-775,251,4030,333,100680
12:18:30.945,17058,-981.4453125,21.484375,-112.3046875,0.029321531433504737,-0.05619960191421742,0.0,-2132,-775,251,4030,333,100680
12:18:30.955,17059,-982.421875,19.53125,-112.3046875,0.006108652381980153,-0.05497787143782139,-0.0012217304763960308,-2132,-775,251,4030,333,100680
12:18:30.975,17060,-986.328125,28.3203125,-108.3984375,-0.0158824961931484,-0.05497787143782139,-0.014660765716752368,-2135,-777,249,4030,333,100680
12:18:30.996,17061,-980.46875,38.0859375,-103.515625,-0.024434609527920613,-0.05986479334340551,0.004886921905584123,-2135,-777,249,4030,333,100680
12:18:31.17,17062,-978.515625,40.0390625,-104.4921875,-0.02809980095710871,-0.05375614096142535,0.0024434609527920616,-2135,-777,249,4030,333,100680
12:18:31.27,17063,-978.515625,32.2265625,-104.4921875,-0.023212879051524585,-0.07086036763096978,0.0024434609527920616,-2135,-777,249,4030,333,100680
12:18:31.47,17064,-975.5859375,27.34375,-110.3515625,-0.023212879051524585,-0.05619960191421742,0.006108652381980153,-2135,-777,249,4030,333,100680
12:18:31.68,17065,-979.4921875,34.1796875,-109.375,-0.03543018381548489,-0.06108652381980154,-0.010995574287564277,-2135,-776,261,4030,333,100680
12:18:31.88,17066,-985.3515625,45.8984375,-109.375,-0.048869219055841226,-0.048869219055841226,-0.013439035240356337,-2135,-776,261,4030,333,100680
12:18:31.108,17067,-995.1171875,41.015625,-108.3984375,-0.014660765716752368,-0.058643062867009474,-0.0024434609527920616,-2135,-776,261,4030,333,100680
12:18:31.118,17068,-995.1171875,38.0859375,-106.4453125,0.007330382858376184,-0.05742133239061345,-0.010995574287564277,-2135,-776,261,4030,333,100680
12:18:31.211,17069,-997.0703125,37.109375,-111.328125,-0.009773843811168246,-0.06475171524898964,-0.01710422666954443,-2129,-777,249,4030,333,100680
12:18:31.231,17070,-999.0234375,41.015625,-108.3984375,-0.019547687622336492,-0.05742133239061345,-0.021991148575128554,-2129,-777,249,4030,333,100680
12:18:31.252,17071,-994.140625,47.8515625,-106.4453125,-0.020769418098732523,-0.05009094953223726,-0.023212879051524585,-2129,-777,249,4030,333,100680
12:18:31.272,17072,-988.28125,53.7109375,-111.328125,0.008552113334772215,-0.05497787143782139,-0.02809980095710871,-2129,-777,249,4030,333,100680
12:18:31.282,17073,-992.1875,51.7578125,-105.46875,0.007330382858376184,-0.06963863715457375,-0.029321531433504737,-2129,-777,249,4030,333,100680
12:18:31.303,17074,-982.421875,47.8515625,-111.328125,-0.0012217304763960308,-0.0671951762017817,-0.020769418098732523,-2129,-778,248,4030,333,100680
12:18:31.323,17075,-980.46875,44.921875,-99.609375,0.02809980095710871,-0.05619960191421742,-0.03298672286269283,-2129,-778,248,4030,333,100680
12:18:31.344,17076,-986.328125,42.96875,-104.4921875,0.04031710572106901,-0.05619960191421742,-0.02809980095710871,-2129,-778,248,4030,333,100680
12:18:31.364,17077,-991.2109375,41.015625,-102.5390625,0.03665191429188092,-0.05375614096142535,-0.021991148575128554,-2129,-778,248,4030,333,100680
12:18:31.374,17078,-990.234375,38.0859375,-105.46875,0.020769418098732523,-0.05009094953223726,-0.008552113334772215,-2129,-778,248,4030,333,100680
12:18:31.436,17079,-993.1640625,38.0859375,-107.421875,0.01832595714594046,-0.04276056667386108,-0.0024434609527920616,-2132,-781,251,4030,333,100680
12:18:31.456,17080,-999.0234375,29.296875,-112.3046875,0.009773843811168246,-0.04276056667386108,0.0012217304763960308,-2132,-781,251,4030,333,100680
12:18:31.466,17081,-990.234375,28.3203125,-107.421875,0.013439035240356337,-0.026878070480712675,0.006108652381980153,-2132,-781,251,4030,333,100680
12:18:31.487,17082,-994.140625,31.25,-113.28125,0.009773843811168246,-0.03543018381548489,0.019547687622336492,-2132,-781,251,4030,333,100680
12:18:31.507,17083,-992.1875,40.0390625,-97.65625,0.007330382858376184,-0.05009094953223726,0.020769418098732523,-2132,-781,251,4030,333,100680
12:18:31.528,17084,-996.09375,34.1796875,-106.4453125,0.026878070480712675,-0.03420845333908886,0.01832595714594046,-2129,-780,246,4030,333,100680
12:18:31.538,17085,-979.4921875,30.2734375,-99.609375,0.03420845333908886,-0.029321531433504737,0.01832595714594046,-2129,-780,246,4030,333,100680
12:18:31.558,17086,-986.328125,21.484375,-97.65625,0.014660765716752368,-0.03543018381548489,0.006108652381980153,-2129,-780,246,4030,333,100680
12:18:31.578,17087,-981.4453125,23.4375,-104.4921875,0.0024434609527920616,-0.03665191429188092,-0.009773843811168246,-2129,-780,246,4030,333,100680
12:18:31.599,17088,-980.46875,16.6015625,-104.4921875,-0.014660765716752368,-0.029321531433504737,-0.007330382858376184,-2121,-775,245,4030,333,100680
12:18:31.619,17089,-989.2578125,21.484375,-101.5625,-0.03665191429188092,-0.04031710572106901,-0.003665191429188092,-2121,-775,245,4030,333,100680
12:18:31.629,17090,-994.140625,25.390625,-100.5859375,-0.05986479334340551,-0.04153883619746505,-0.023212879051524585,-2121,-775,245,4030,333,100680
12:18:31.650,17091,-984.375,25.390625,-104.4921875,-0.04520402762665313,-0.02809980095710871,-0.02809980095710871,-2121,-775,245,4030,333,100680
12:18:31.670,17092,-986.328125,19.53125,-99.609375,-0.04031710572106901,-0.04031710572106901,-0.03420845333908886,-2121,-775,245,4030,333,100680
12:18:31.690,17093,-986.328125,14.6484375,-87.890625,-0.07574728953655392,-0.04398229715025711,-0.039095375244672985,-2121,-777,230,4030,333,100680
12:18:31.711,17094,-980.46875,-0.0,-85.9375,-0.15638150097869194,-0.039095375244672985,-0.06230825429619757,-2121,-777,230,4030,333,100680
12:18:31.722,17095,-977.5390625,17.578125,-91.796875,-0.2150245638457014,-0.051312680008633295,-0.06963863715457375,-2121,-777,230,4030,333,100680
12:18:31.742,17096,-984.375,24.4140625,-95.703125,-0.21258110289290938,-0.052534410485029326,-0.07452555906015788,-2121,-777,230,4030,333,100680
12:18:31.762,17097,-986.328125,35.15625,-116.2109375,-0.1954768762233649,-0.04398229715025711,-0.07452555906015788,-2121,-777,230,4030,333,100680
12:18:31.783,17098,-984.375,32.2265625,-125.0,-0.12095131716320705,-0.05619960191421742,-0.07086036763096978,-2124,-781,246,4030,333,100680
12:18:31.793,17099,-982.421875,39.0625,-114.2578125,-0.0671951762017817,-0.06597344572538566,-0.06108652381980154,-2124,-781,246,4030,333,100680
12:18:31.813,17100,-988.28125,25.390625,-99.609375,-0.05009094953223726,-0.06108652381980154,-0.06108652381980154,-2124,-781,246,4030,333,100680
12:18:31.833,17101,-992.1875,23.4375,-88.8671875,-0.03543018381548489,-0.052534410485029326,-0.06108652381980154,-2124,-781,246,4030,333,100680
12:18:31.854,17102,-991.2109375,26.3671875,-85.9375,-0.05497787143782139,-0.05497787143782139,-0.06108652381980154,-2126,-783,248,4024,334,100685
12:18:31.874,17103,-990.234375,27.34375,-92.7734375,-0.0671951762017817,-0.05986479334340551,-0.05375614096142535,-2126,-783,248,4024,334,100685
12:18:31.884,17104,-986.328125,29.296875,-101.5625,-0.0635299847725936,-0.0635299847725936,-0.03787364476827696,-2126,-783,248,4024,334,100685
12:18:31.905,17105,-988.28125,23.4375,-105.46875,-0.07330382858376185,-0.07208209810736582,-0.029321531433504737,-2126,-783,248,4024,334,100685
12:18:31.925,17106,-990.234375,19.53125,-103.515625,-0.08796459430051422,-0.07086036763096978,-0.009773843811168246,-2126,-783,248,4024,334,100685
12:18:31.946,17107,-997.0703125,15.625,-91.796875,-0.10140362954087055,-0.07574728953655392,-0.004886921905584123,-2123,-780,252,4024,334,100685
12:18:31.956,17108,-994.140625,18.5546875,-101.5625,-0.11850785621041499,-0.04398229715025711,-0.010995574287564277,-2123,-780,252,4024,334,100685
12:18:31.977,17109,-994.140625,31.25,-104.4921875,-0.12950343049797927,-0.05009094953223726,-0.0024434609527920616,-2123,-780,252,4024,334,100685
12:18:31.997,17110,-991.2109375,37.109375,-104.4921875,-0.0989601685880785,-0.058643062867009474,0.0,-2123,-780,252,4024,334,100685
12:18:32.18,17111,-988.28125,21.484375,-99.609375,-0.06841690667817772,-0.052534410485029326,0.020769418098732523,-2123,-780,252,4024,334,100685
12:18:32.38,17112,-995.1171875,14.6484375,-106.4453125,-0.058643062867009474,-0.04153883619746505,0.007330382858376184,-2116,-789,245,4024,334,100685
12:18:32.49,17113,-990.234375,16.6015625,-97.65625,-0.06963863715457375,-0.04398229715025711,0.013439035240356337,-2116,-789,245,4024,334,100685
12:18:32.69,17114,-991.2109375,22.4609375,-96.6796875,-0.09040805525330627,-0.029321531433504737,0.0012217304763960308,-2116,-789,245,4024,334,100685
12:18:32.90,17115,-999.0234375,29.296875,-104.4921875,-0.08063421144213802,-0.03054326190990077,-0.008552113334772215,-2116,-789,245,4024,334,100685
12:18:32.110,17116,-993.1640625,35.15625,-105.46875,-0.04276056667386108,-0.03420845333908886,-0.007330382858376184,-2124,-789,242,4024,334,100685
12:18:32.120,17117,-991.2109375,33.203125,-106.4453125,-0.0317649923862968,-0.039095375244672985,-0.007330382858376184,-2124,-789,242,4024,334,100685
12:18:32.140,17118,-991.2109375,29.296875,-103.515625,-0.008552113334772215,-0.026878070480712675,-0.008552113334772215,-2124,-789,242,4024,334,100685
12:18:32.161,17119,-996.09375,26.3671875,-94.7265625,-0.019547687622336492,-0.026878070480712675,0.003665191429188092,-2124,-789,242,4024,334,100685
12:18:32.182,17120,-996.09375,29.296875,-94.7265625,-0.025656340004316647,-0.01832595714594046,-0.006108652381980153,-2124,-789,242,4024,334,100685
12:18:32.274,17121,-995.1171875,36.1328125,-100.5859375,-0.019547687622336492,-0.021991148575128554,-0.010995574287564277,-2124,-788,258,4024,334,100685
12:18:32.284,17122,-990.234375,43.9453125,-106.4453125,-0.0024434609527920616,-0.04153883619746505,-0.004886921905584123,-2124,-788,258,4024,334,100685
12:18:32.304,17123,-979.4921875,31.25,-106.4453125,0.0317649923862968,-0.03787364476827696,-0.012217304763960306,-2124,-788,258,4024,334,100685
12:18:32.324,17124,-977.5390625,27.34375,-107.421875,0.04520402762665313,-0.023212879051524585,-0.004886921905584123,-2124,-788,258,4024,334,100685
12:18:32.345,17125,-975.5859375,26.3671875,-86.9140625,-0.014660765716752368,-0.019547687622336492,0.008552113334772215,-2124,-788,258,4024,334,100685
12:18:32.365,17126,-983.3984375,16.6015625,-68.359375,-0.0635299847725936,-0.021991148575128554,0.0,-2121,-786,253,4024,334,100685
12:18:32.375,17127,-1001.953125,-0.9765625,-83.0078125,-0.1270599695451872,-0.0024434609527920616,0.0024434609527920616,-2121,-786,253,4024,334,100685
12:18:32.395,17128,-1002.9296875,-8.7890625,-86.9140625,-0.22479840765686968,0.0024434609527920616,0.009773843811168246,-2121,-786,253,4024,334,100685
12:18:32.416,17129,-991.2109375,-15.625,-114.2578125,-0.35552356863124496,0.024434609527920613,-0.013439035240356337,-2121,-786,253,4024,334,100685
12:18:32.437,17130,-990.234375,11.71875,-128.90625,-0.4227187448330266,0.03298672286269283,-0.012217304763960306,-2125,-785,234,4024,334,100685
12:18:32.457,17131,-1002.9296875,3.90625,-129.8828125,-0.4447098934081552,0.058643062867009474,0.0,-2125,-785,234,4024,334,100685
12:18:32.468,17132,-1011.71875,-15.625,-157.2265625,-0.4276056667386108,0.09773843811168245,0.023212879051524585,-2125,-785,234,4024,334,100685
12:18:32.488,17133,-1010.7421875,-26.3671875,-179.6875,-0.39950586578150205,0.16493361431346415,0.05619960191421742,-2125,-785,234,4024,334,100685
12:18:32.509,17134,-1024.4140625,-5.859375,-189.453125,-0.35552356863124496,0.2186897552748895,0.09040805525330627,-2125,-785,234,4024,334,100685
12:18:32.529,17135,-1051.7578125,-29.296875,-194.3359375,-0.31520646291017596,0.2675589743307307,0.12828170002158323,-2124,-792,255,4024,334,100685
12:18:32.540,17136,-1056.640625,-37.109375,-202.1484375,-0.2150245638457014,0.32375857624494814,0.18448130193580062,-2124,-792,255,4024,334,100685
12:18:32.560,17137,-1048.828125,-30.2734375,-220.703125,-0.16371188383706814,0.38606683054114566,0.2028072590817411,-2124,-792,255,4024,334,100685
12:18:32.581,17138,-1048.828125,22.4609375,-193.359375,-0.20402898955813717,0.40317105721069013,0.25656340004316647,-2124,-792,255,4024,334,100685
12:18:32.602,17139,-1049.8046875,46.875,-204.1015625,-0.10873401239924674,0.437379510549779,0.29810223624063154,-2124,-792,255,4024,334,100685
12:18:32.612,17140,-1029.296875,91.796875,-243.1640625,0.048869219055841226,0.45081854579013536,0.37140606482439337,-2129,-785,262,4024,334,100685
12:18:32.632,17141,-1008.7890625,105.46875,-227.5390625,0.2663372438543347,0.3897320219703338,0.40927970959267035,-2129,-785,262,4024,334,100685
12:18:32.653,17142,-998.046875,153.3203125,-267.578125,0.4288273972150068,0.38362336958835364,0.4679227724596798,-2129,-785,262,4024,334,100685
12:18:32.673,17143,-978.515625,197.265625,-274.4140625,0.5082398781807488,0.3530801076784529,0.4935791124639964,-2129,-785,262,4024,334,100685
12:18:32.694,17144,-970.703125,267.578125,-244.140625,0.6902777191637574,0.2651155133779387,0.5900958200992829,-2128,-765,291,4024,334,100685
12:18:32.704,17145,-959.9609375,332.03125,-258.7890625,0.8857545953871224,0.24801128670839426,0.6731734924942129,-2128,-765,291,4024,334,100685
12:18:32.724,17146,-930.6640625,386.71875,-294.921875,0.9993755296919531,0.2516764781375823,0.8906415172927065,-2128,-765,291,4024,334,100685
12:18:32.745,17147,-919.921875,410.15625,-254.8828125,1.1924089449625261,0.13683381335635544,1.1252137687607444,-2128,-765,291,4024,334,100685
12:18:32.765,17148,-932.6171875,447.265625,-218.75,1.3683381335635545,0.1551597705022959,1.3402383326064458,-2128,-765,291,4024,334,100685
12:18:32.785,17149,-916.9921875,508.7890625,-211.9140625,1.2205087459196347,0.21746802479849348,1.6041321155079884,-2127,-736,301,4024,334,100685
12:18:32.795,17150,-947.265625,572.265625,-289.0625,1.227839128778011,0.2907718533822553,1.8985691603194317,-2127,-736,301,4024,334,100685
12:18:32.816,17151,-914.0625,606.4453125,-270.5078125,1.2913691135506045,0.42394047530942264,2.183232361319707,-2127,-736,301,4024,334,100685
12:18:32.836,17152,-937.5,549.8046875,-294.921875,1.3524556373704062,0.5338962181850655,2.514321320423031,-2127,-736,301,4024,333,100683
12:18:32.856,17153,-944.3359375,548.828125,-310.546875,1.35123390689401,0.7367034772668065,2.69025050902406,-2127,-736,301,4024,333,100683
12:18:32.867,17154,-976.5625,613.28125,-315.4296875,1.2095131716320704,0.8759807515759541,2.9590312138311865,-2125,-669,312,4024,333,100683
12:18:32.887,17155,-948.2421875,627.9296875,-333.984375,1.0836749325632793,0.9871582249279928,3.1361821329086115,-2125,-669,312,4024,333,100683
12:18:32.907,17156,-904.296875,625.0,-382.8125,0.8674286382411819,1.116661655425972,3.1984903872048087,-2125,-669,312,4024,333,100683
12:18:32.928,17157,-875.9765625,662.109375,-388.671875,0.6927211801165495,1.238834703065575,3.2717942157885704,-2125,-669,312,4024,333,100683
12:18:32.948,17158,-865.234375,707.03125,-393.5546875,0.6145304296272034,1.2424998944947634,3.3402111224667483,-2102,-557,348,4024,333,100683
12:18:32.958,17159,-809.5703125,714.84375,-397.4609375,0.5522221753310059,1.2144000935376547,3.3499849662779164,-2102,-557,348,4024,333,100683
12:18:33.39,17160,-763.671875,708.0078125,-416.015625,0.5119050696099369,1.1997393278209023,3.293785364363699,-2102,-557,348,4024,333,100683
12:18:33.49,17161,-708.984375,723.6328125,-455.078125,0.4948008429403924,1.1655308744818131,3.174055777676888,-2102,-557,348,4024,333,100683
12:18:33.70,17162,-689.453125,708.984375,-432.6171875,0.4813618077000361,1.067792436370131,3.098308488140334,-2102,-557,348,4024,333,100683
12:18:33.90,17163,-623.046875,709.9609375,-420.8984375,0.5253441048502933,1.0274753306490618,2.9651398662131667,-2034,-440,398,4024,333,100683
12:18:33.111,17164,-570.3125,676.7578125,-418.9453125,0.5241223743738972,0.9248499706317953,2.783102025230158,-2034,-440,398,4024,333,100683
12:18:33.121,17165,-500.0,675.78125,-444.3359375,0.5033529562751646,0.8723155601467659,2.599842453770753,-2034,-440,398,4024,333,100683
12:18:33.142,17166,-461.9140625,696.2890625,-456.0546875,0.5241223743738972,0.8124507668033605,2.4361305699336855,-2034,-440,398,4024,333,100683
12:18:33.162,17167,-407.2265625,681.640625,-441.40625,0.4862487296056202,0.7024950239277178,2.2748621470494093,-2034,-440,398,4024,333,100683
12:18:33.183,17168,-371.09375,678.7109375,-437.5,0.515570261039125,0.4972443038931845,2.1209241070235096,-1945,-355,434,4024,333,100683
12:18:33.203,17169,-330.078125,666.9921875,-461.9140625,0.5400048705670456,0.39217548292312593,1.9559904927100453,-1945,-355,434,4024,333,100683
12:18:33.213,17170,-276.3671875,651.3671875,-492.1875,0.5693264020005504,0.30543261909900765,1.7776178431562246,-1945,-355,434,4024,333,100683
12:18:33.234,17171,-235.3515625,669.921875,-523.4375,0.6646213791594408,0.22479840765686968,1.5625932793105233,-1945,-355,434,4024,333,100683
12:18:33.254,17172,-205.078125,671.875,-511.71875,0.6902777191637574,0.14538592669112765,1.4172073526193958,-1945,-355,434,4024,333,100683
12:18:33.275,17173,-196.2890625,692.3828125,-516.6015625,0.7147123286916779,0.03054326190990077,1.2803735392630404,-1867,-314,488,4024,333,100683
12:18:33.305,17174,-183.59375,740.234375,-530.2734375,0.7904596182282319,-0.09651670763528641,1.1643091440054174,-1867,-314,488,4024,333,100683
12:18:33.325,17175,-154.296875,748.046875,-588.8671875,0.8051203839449842,-0.15882496193148402,1.0848966630396752,-1867,-314,488,4024,333,100683
12:18:33.346,17176,-145.5078125,750.0,-606.4453125,0.8295549934729048,-0.21991148575128555,1.0115928344559135,-1867,-314,488,4024,333,100683
12:18:33.366,17177,-145.5078125,769.53125,-608.3984375,0.8820894039579342,-0.29810223624063154,0.9407324668249436,-1812,-304,503,4024,333,100683
12:18:33.377,17178,-140.625,779.296875,-638.671875,0.8002334620394002,-0.39950586578150205,0.911410935391439,-1812,-304,503,4024,333,100683
12:18:33.397,17179,-130.859375,730.46875,-705.078125,0.4789183467472441,-0.3799581781591656,0.9456193887305279,-1812,-304,503,4024,333,100683
12:18:33.417,17180,-60.546875,653.3203125,-744.140625,0.3090978105281958,-0.31154127148098787,0.950506310636112,-1812,-304,503,4024,333,100683
12:18:33.437,17181,-63.4765625,675.78125,-701.171875,0.5057964172279568,-0.33597588100890846,0.8979719001510825,-1812,-304,503,4024,333,100683
12:18:33.458,17182,-69.3359375,726.5625,-689.453125,0.6963863715457376,-0.38606683054114566,0.9040805525330627,-1778,-305,528,4024,333,100683
12:18:33.468,17183,-69.3359375,799.8046875,-719.7265625,0.8503244115716375,-0.38484510006474965,0.8429940287132612,-1778,-305,528,4024,333,100683
12:18:33.488,17184,-53.7109375,669.921875,-759.765625,0.47280969436526393,-0.3200933848157601,0.9285151620609834,-1778,-305,528,4024,333,100683
12:18:33.508,17185,15.625,499.0234375,-743.1640625,0.31764992386296803,-0.21258110289290938,0.836885376331281,-1778,-305,528,4024,333,100683
12:18:33.529,17186,17.578125,547.8515625,-725.5859375,0.5180137219919171,-0.1905899543177808,0.7782423134642715,-1778,-305,528,4024,333,100683
12:18:33.539,17187,-21.484375,671.875,-708.984375,0.4459316238845512,-0.2296853295624538,0.8442157591896573,-1756,-308,534,4024,333,100683
12:18:33.560,17188,-66.40625,726.5625,-730.46875,0.2186897552748895,-0.16126842288427604,0.9260717011081913,-1756,-308,534,4024,333,100683
12:18:33.580,17189,-40.0390625,641.6015625,-785.15625,0.003665191429188092,-0.1478293876439197,0.8674286382411819,-1756,-308,534,4024,333,100683
12:18:33.600,17190,-26.3671875,540.0390625,-779.296875,-0.1075122819228507,-0.2223549467040776,0.7855726963226478,-1756,-308,534,4024,333,100683
12:18:33.621,17191,-60.546875,529.296875,-784.1796875,0.0952949771588904,-0.2932153143350474,0.7012732934513217,-1728,-310,549,4024,333,100683
12:18:33.631,17192,-67.3828125,562.5,-808.59375,0.09773843811168245,-0.1820378409830086,0.7269296334556383,-1728,-310,549,4024,333,100683
12:18:33.651,17193,-52.734375,538.0859375,-790.0390625,0.15760323145508798,-0.12950343049797927,0.7024950239277178,-1728,-310,549,4024,333,100683
12:18:33.672,17194,-57.6171875,454.1015625,-822.265625,0.3530801076784529,-0.12950343049797927,0.6059783162924314,-1728,-310,549,4024,333,100683
12:18:33.692,17195,-69.3359375,298.828125,-748.046875,0.5131268000863329,-0.2076941809873252,0.44959681531373935,-1728,-310,549,4024,333,100683
12:18:33.713,17196,-108.3984375,259.765625,-792.96875,0.4923573819876005,-0.11972958668681102,0.3042108886226117,-1705,-309,547,4024,333,100683
12:18:33.723,17197,-101.5625,215.8203125,-771.484375,0.45081854579013536,-0.0476474885794452,0.17592918860102844,-1705,-309,547,4024,333,100683
12:18:33.743,17198,-101.5625,165.0390625,-760.7421875,0.2504547476611863,-0.04031710572106901,-0.020769418098732523,-1705,-309,547,4024,333,100683
12:18:33.764,17199,-110.3515625,184.5703125,-772.4609375,0.14172073526193957,0.006108652381980153,-0.2028072590817411,-1705,-309,547,4024,333,100683
12:18:33.784,17200,-102.5390625,247.0703125,-761.71875,0.10140362954087055,0.06841690667817772,-0.32253684576855207,-1705,-309,547,4024,333,100683
12:18:33.794,17201,-82.03125,252.9296875,-767.578125,-0.006108652381980153,0.04520402762665313,-0.4422664324553632,-1704,-316,573,4024,333,100683
12:18:33.815,17202,-82.03125,282.2265625,-783.203125,-0.1392772743091475,-0.012217304763960306,-0.6291911953439558,-1704,-316,573,4024,333,100678
12:18:33.835,17203,-120.1171875,340.8203125,-795.8984375,-0.16126842288427604,0.03787364476827696,-0.7965682706102121,-1704,-316,573,4024,333,100678
12:18:33.855,17204,-113.28125,360.3515625,-733.3984375,-0.23335052099164189,0.07696902001294993,-0.9077457439622509,-1704,-316,573,4024,333,100678
12:18:33.876,17205,-123.046875,328.125,-687.5,-0.2736676267127109,0.1148426647812269,-1.1264354992371404,-1701,-314,575,4024,333,100678
12:18:33.886,17206,-188.4765625,356.4453125,-719.7265625,-0.39706240482871,0.14172073526193957,-1.3145819926021292,-1701,-314,575,4024,333,100678
12:18:33.906,17207,-170.8984375,412.109375,-702.1484375,-0.4544837372193235,0.1343903524035634,-1.3329079497480694,-1701,-314,575,4024,333,100678
12:18:33.927,17208,-151.3671875,460.9375,-739.2578125,-0.4398229715025711,0.16126842288427604,-1.385442360233099,-1701,-314,575,4024,333,100678
12:18:34.19,17209,-143.5546875,545.8984375,-777.34375,-0.4434881629317592,0.2907718533822553,-1.4367550402417322,-1701,-314,575,4024,333,100678
12:18:34.39,17210,-149.4140625,615.234375,-755.859375,-0.55100044485461,0.4862487296056202,-1.4135421611902077,-1744,-319,557,4024,333,100678
12:18:34.50,17211,-185.546875,803.7109375,-778.3203125,-0.5338962181850655,0.560774288665778,-1.393994473567871,-1744,-319,557,4024,333,100678
12:18:34.70,17212,-121.09375,925.78125,-783.203125,-0.6023131248632432,0.4825835381764321,-1.2449433554475555,-1744,-319,557,4024,333,100678
12:18:34.91,17213,-86.9140625,960.9375,-781.25,-0.6084217772452234,0.43615778007338296,-1.1655308744818131,-1744,-319,557,4024,333,100678
12:18:34.111,17214,-37.109375,1062.5,-786.1328125,-0.5754350543825305,0.5119050696099369,-1.0567968620825665,-1744,-319,557,4024,333,100678
12:18:34.132,17215,25.390625,1127.9296875,-773.4375,-0.5778785153353226,0.4593706591249076,-0.9248499706317953,-1783,-318,547,4024,333,100678
12:18:34.142,17216,55.6640625,1042.96875,-765.625,-0.553443905807402,0.4593706591249076,-0.7440338601251827,-1783,-318,547,4024,333,100678
12:18:34.162,17217,34.1796875,971.6796875,-756.8359375,-0.34086280291449256,0.38484510006474965,-0.6084217772452234,-1783,-318,547,4024,333,100678
12:18:34.183,17218,65.4296875,910.15625,-754.8828125,-0.2663372438543347,0.4056145181634822,-0.4715879638888679,-1783,-318,547,4024,333,100678
12:18:34.203,17219,58.59375,803.7109375,-750.0,-0.3286454981505323,0.39339721339952194,-0.35674529910764097,-1794,-326,540,4024,333,100678
12:18:34.213,17220,15.625,740.234375,-710.9375,-0.35430183815484895,0.4214970143566306,-0.3042108886226117,-1794,-326,540,4024,333,100678
12:18:34.234,17221,-23.4375,710.9375,-665.0390625,-0.2614503219487506,0.3775147172063735,-0.2907718533822553,-1794,-326,540,4024,333,100678
12:18:34.254,17222,-47.8515625,679.6875,-668.9453125,-0.2028072590817411,0.31520646291017596,-0.3090978105281958,-1794,-326,540,4024,333,100678
12:18:34.274,17223,-62.5,623.046875,-678.7109375,-0.23701571242082997,0.2956587752878394,-0.34086280291449256,-1794,-326,540,4024,333,100678
12:18:34.295,17224,-91.796875,559.5703125,-698.2421875,-0.26267205242514663,0.2883283924294633,-0.39828413530510604,-1798,-322,532,4024,333,100678
12:18:34.305,17225,-131.8359375,555.6640625,-710.9375,-0.3017674276698196,0.3457497248200767,-0.45814892864851153,-1798,-322,532,4024,333,100678
12:18:34.325,17226,-122.0703125,555.6640625,-696.2890625,-0.38484510006474965,0.40317105721069013,-0.5461135229490258,-1798,-322,532,4024,333,100678
12:18:34.346,17227,-164.0625,560.546875,-633.7890625,-0.4471533543609472,0.437379510549779,-0.6328563867731439,-1798,-322,532,4024,333,100678
12:18:34.367,17228,-168.9453125,604.4921875,-516.6015625,-0.6743952229706089,0.32375857624494814,-0.631634656296748,-1798,-322,532,4024,333,100678
12:18:34.387,17229,-156.25,582.03125,-597.65625,-0.7892378877518359,0.17470745812463243,-0.833220184902093,-1808,-325,528,4024,333,100678
12:18:34.397,17230,-95.703125,594.7265625,-712.890625,-0.7721336610822913,0.31154127148098787,-0.9602801544472802,-1808,-325,528,4024,333,100678
12:18:34.418,17231,-67.3828125,597.65625,-677.734375,-0.8845328649107264,0.4447098934081552,-0.9590584239708841,-1808,-325,528,4024,333,100678
12:18:34.439,17232,-106.4453125,652.34375,-665.0390625,-1.0201449477906857,0.5998696639104512,-1.0152580258851016,-1808,-325,528,4024,333,100678
12:18:34.459,17233,-112.3046875,755.859375,-685.546875,-1.067792436370131,0.7134905982152819,-1.1056660811384078,-1829,-322,523,4024,333,100678
12:18:34.469,17234,-100.5859375,830.078125,-665.0390625,-1.0946705068508435,0.756251164889143,-1.1252137687607444,-1829,-322,523,4024,333,100678
12:18:34.490,17235,-99.609375,874.0234375,-634.765625,-1.0751228192285072,0.839328837284073,-1.1557570306706453,-1829,-322,523,4024,333,100678
12:18:34.510,17236,-91.796875,920.8984375,-625.0,-1.0482447487477944,0.955393232541696,-1.1789699097221698,-1829,-322,523,4024,333,100678
12:18:34.531,17237,-68.359375,972.65625,-619.140625,-1.0164797563614976,1.0091493735031216,-1.1753047182929817,-1829,-322,523,4024,333,100678
12:18:34.541,17238,-34.1796875,997.0703125,-618.1640625,-0.9786061115932208,1.0910053154216555,-1.156978761147041,-1841,-320,502,4024,333,100678
12:18:34.561,17239,-28.3203125,1066.40625,-569.3359375,-0.8515461420480335,1.070235897322923,-1.0946705068508435,-1841,-320,502,4024,333,100678
12:18:34.582,17240,-19.53125,1121.09375,-501.953125,-0.7440338601251827,1.0396926354130223,-1.0030407211211414,-1841,-320,502,4024,333,100678
12:18:34.602,17241,-10.7421875,1147.4609375,-481.4453125,-0.6585127267774605,0.9321803534901714,-0.8637634468119937,-1841,-320,502,4024,333,100678
12:18:34.622,17242,3.90625,1163.0859375,-449.21875,-0.6255260039147678,0.7745771220350836,-0.6805038753525892,-1841,-320,502,4024,333,100678
12:18:34.633,17243,-1.953125,1155.2734375,-477.5390625,-0.4960225734167885,0.6548475353482726,-0.519235452468313,-1862,-322,493,4024,333,100678
12:18:34.653,17244,-21.484375,1148.4375,-478.515625,-0.25656340004316647,0.49846603436958054,-0.39461894387591795,-1862,-322,493,4024,333,100678
12:18:34.673,17245,-22.4609375,1130.859375,-510.7421875,-0.16004669240788005,0.35430183815484895,-0.1466076571675237,-1862,-322,493,4024,333,100678
12:18:34.693,17246,-24.4140625,1048.828125,-540.0390625,-0.17715091907742447,0.37140606482439337,0.0024434609527920616,-1862,-322,493,4024,333,100678
12:18:34.714,17247,-35.15625,1015.625,-531.25,0.04520402762665313,0.2858849314766712,0.1111774733520388,-1869,-327,488,4024,333,100678
12:18:34.724,17248,-52.734375,1067.3828125,-497.0703125,0.2907718533822553,0.1466076571675237,0.2663372438543347,-1869,-327,488,4024,333,100678
12:18:34.744,17249,-72.265625,1113.28125,-464.84375,0.37507125625358145,-0.07208209810736582,0.49113565151120436,-1869,-327,488,4024,333,100678
12:18:34.765,17250,-46.875,972.65625,-490.234375,0.11606439525762292,0.0476474885794452,0.5204571829447091,-1869,-327,488,4024,333,100678
12:18:34.785,17251,-42.96875,824.21875,-529.296875,0.15393804002589986,0.11239920382843484,0.4703662334124718,-1869,-327,488,4024,333,100678
12:18:34.795,17252,-103.515625,882.8125,-532.2265625,0.43371431912059094,0.03543018381548489,0.5766567848589266,-1862,-327,502,4024,333,100677
12:18:34.815,17253,-112.3046875,1017.578125,-465.8203125,0.514348530562729,0.08185594191853407,0.8759807515759541,-1862,-327,502,4024,333,100677
12:18:34.856,17254,-83.984375,999.0234375,-447.265625,0.4166100924510465,-0.012217304763960306,0.9969320687391611,-1862,-327,502,4024,333,100677
12:18:34.877,17255,-108.3984375,964.84375,-552.734375,0.31154127148098787,0.051312680008633295,1.0042624515975374,-1862,-327,502,4024,333,100677
12:18:34.887,17256,-99.609375,918.9453125,-558.59375,0.1111774733520388,0.12950343049797927,1.1276572297135363,-1862,-327,502,4024,333,100677
12:18:34.908,17257,-76.171875,915.0390625,-534.1796875,0.20891591146372127,-0.04153883619746505,1.2803735392630404,-1836,-321,518,4024,333,100677
12:18:34.928,17258,-79.1015625,912.109375,-543.9453125,0.39828413530510604,-0.16737707526625623,1.3658946726107624,-1836,-321,518,4024,333,100677
12:18:34.949,17259,-70.3125,890.625,-583.0078125,0.5900958200992829,-0.17715091907742447,1.3842206297567028,-1836,-321,518,4024,333,100677
12:18:34.959,17260,-20.5078125,793.9453125,-634.765625,0.43860124102617504,0.013439035240356337,1.269377964975476,-1836,-321,518,4024,333,100677
12:18:35.0,17261,-0.0,485.3515625,-612.3046875,0.3652974124424132,-0.05375614096142535,0.9859364944515968,-1836,-321,518,4024,333,100677
12:18:35.20,17262,-36.1328125,371.09375,-603.515625,0.3824016391119576,-0.06475171524898964,0.7122688677388859,-1786,-304,516,4024,333,100677
12:18:35.40,17263,-61.5234375,325.1953125,-559.5703125,0.35185837720205687,-0.051312680008633295,0.5106833391335408,-1786,-304,516,4024,333,100677
12:18:35.51,17264,-76.171875,236.328125,-586.9140625,0.3909537524467298,-0.004886921905584123,0.27977627909469105,-1786,-304,516,4024,333,100677
12:18:35.71,17265,-66.40625,203.125,-608.3984375,0.3677408733952052,0.013439035240356337,0.14416419621473164,-1786,-304,516,4024,333,100677
12:18:35.91,17266,-58.59375,219.7265625,-601.5625,0.35918876006043304,0.0476474885794452,0.01710422666954443,-1766,-304,537,4024,333,100677
12:18:35.111,17267,-59.5703125,325.1953125,-567.3828125,0.33108895910332437,0.019547687622336492,-0.0476474885794452,-1766,-304,537,4024,333,100677
12:18:35.132,17268,-47.8515625,426.7578125,-579.1015625,0.1270599695451872,-0.014660765716752368,-0.17715091907742447,-1766,-304,537,4024,333,100677
12:18:35.142,17269,-0.0,471.6796875,-610.3515625,-0.039095375244672985,-0.09773843811168245,-0.3457497248200767,-1766,-304,537,4024,333,100677
12:18:35.162,17270,-0.9765625,549.8046875,-595.703125,-0.15638150097869194,-0.15638150097869194,-0.5693264020005504,-1766,-304,537,4024,333,100677
12:18:35.183,17271,-23.4375,586.9140625,-577.1484375,-0.33108895910332437,-0.2138028333693054,-0.748920782030767,-1765,-312,548,4024,333,100677
12:18:35.203,17272,-39.0625,583.984375,-545.8984375,-0.5070181477043528,-0.38362336958835364,-0.9615018849236762,-1765,-312,548,4024,333,100677
12:18:35.223,17273,-72.265625,592.7734375,-540.0390625,-0.555887366760194,-0.4789183467472441,-1.1398745344774965,-1765,-312,548,4024,333,100677
12:18:35.233,17274,-81.0546875,643.5546875,-461.9140625,-0.6560692658246685,-0.5937610115284709,-1.2571606602115155,-1765,-312,548,4024,333,100677
12:18:35.274,17275,-118.1640625,607.421875,-362.3046875,-0.7440338601251827,-0.7635815477475193,-1.4172073526193958,-1765,-312,548,4024,333,100677
12:18:35.295,17276,-202.1484375,624.0234375,-443.359375,-0.6878342582109653,-0.8649851772883896,-1.5186109821602662,-1791,-312,526,4024,333,100677
12:18:35.305,17277,-315.4296875,712.890625,-680.6640625,-0.3909537524467298,-0.7574728953655392,-1.308473340220149,-1791,-312,526,4024,333,100677
12:18:35.325,17278,-207.03125,900.390625,-640.625,-0.24801128670839426,-0.6621779182066487,-1.067792436370131,-1791,-312,526,4024,333,100677
12:18:35.346,17279,-112.3046875,964.84375,-583.984375,-0.22846359908605776,-0.5204571829447091,-0.993266877309973,-1791,-312,526,4024,333,100677
12:18:35.366,17280,-125.9765625,1077.1484375,-598.6328125,0.025656340004316647,-0.4557054676957195,-0.9309586230137754,-1848,-321,505,4024,333,100677
12:18:35.386,17281,-101.5625,1168.9453125,-640.625,0.16737707526625623,-0.4447098934081552,-0.7904596182282319,-1848,-321,505,4024,333,100677
12:18:35.417,17282,-107.421875,1130.859375,-639.6484375,0.11728612573401895,-0.5265658353266892,-0.594982742004867,-1848,-321,505,4024,333,100677
12:18:35.437,17283,-120.1171875,1120.1171875,-657.2265625,-0.024434609527920613,-0.3824016391119576,-0.40194932673429407,-1848,-321,505,4024,333,100677
12:18:35.458,17284,-90.8203125,1090.8203125,-676.7578125,-0.3885102914939378,-0.28099800957108706,-0.23335052099164189,-1848,-321,505,4024,333,100677
12:18:35.478,17285,-92.7734375,1087.890625,-619.140625,-0.3335324200561164,-0.22724186860966175,-0.16859880574265224,-1888,-344,503,4024,333,100677
12:18:35.488,17286,-158.203125,1061.5234375,-585.9375,-0.3738495257771854,-0.2895501229058593,-0.14416419621473164,-1888,-344,503,4024,333,100677
12:18:35.508,17287,-167.96875,999.0234375,-596.6796875,-0.4557054676957195,-0.2431243648028101,-0.15393804002589986,-1888,-344,503,4024,333,100677
12:18:35.529,17288,-142.578125,935.546875,-626.953125,-0.35674529910764097,-0.2235766771804736,-0.1551597705022959,-1888,-344,503,4024,333,100677
12:18:35.560,17289,-162.109375,909.1796875,-595.703125,-0.23212879051524585,-0.2516764781375823,-0.09162978572970232,-1888,-344,503,4024,333,100677
12:18:35.581,17290,-186.5234375,893.5546875,-587.890625,-0.09040805525330627,-0.2150245638457014,-0.0476474885794452,-1903,-343,490,4024,333,100677
12:18:35.601,17291,-184.5703125,861.328125,-576.171875,-0.03298672286269283,-0.14049900478554353,0.0012217304763960308,-1903,-343,490,4024,333,100677
12:18:35.622,17292,-201.171875,833.984375,-568.359375,0.07941248096574201,-0.12217304763960309,0.019547687622336492,-1903,-343,490,4024,333,100677
12:18:35.632,17293,-210.9375,828.125,-526.3671875,0.06475171524898964,-0.1392772743091475,0.052534410485029326,-1903,-343,490,4024,333,100677
12:18:35.653,17294,-213.8671875,826.171875,-534.1796875,0.05742133239061345,-0.17226399717184035,0.06841690667817772,-1913,-341,481,4024,333,100677
12:18:35.673,17295,-202.1484375,798.828125,-553.7109375,0.03298672286269283,-0.2504547476611863,0.07574728953655392,-1913,-341,481,4024,333,100677
12:18:35.693,17296,-191.40625,789.0625,-533.203125,0.014660765716752368,-0.3335324200561164,0.1111774733520388,-1913,-341,481,4024,333,100677
12:18:35.714,17297,-203.125,822.265625,-527.34375,0.11239920382843484,-0.3469714552964728,0.15393804002589986,-1913,-341,481,4024,333,100677
12:18:35.724,17298,-157.2265625,853.515625,-554.6875,0.16982053621904827,-0.3457497248200767,0.18814649336498873,-1913,-341,481,4024,333,100677
12:18:35.744,17299,-124.0234375,869.140625,-580.078125,0.17959438003021652,-0.3384193419617005,0.2553416695667704,-1909,-342,467,4024,333,100677
12:18:35.764,17300,-115.234375,985.3515625,-556.640625,0.2296853295624538,-0.3262020371977402,0.36163222101322506,-1909,-342,467,4024,333,100677
12:18:35.785,17301,-77.1484375,1047.8515625,-548.828125,0.2944370448114434,-0.3103195410045918,0.5009094953223726,-1909,-342,467,4024,333,100677
12:18:35.805,17302,-83.984375,1104.4921875,-562.5,0.3323106895797204,-0.35674529910764097,0.6866125277345693,-1909,-342,467,4024,334,100687
12:18:35.836,17303,-64.453125,1136.71875,-583.984375,0.39950586578150205,-0.3139847324337799,0.8857545953871224,-1909,-342,467,4024,334,100687
12:18:35.856,17304,-40.0390625,1140.625,-616.2109375,0.4422664324553632,-0.23212879051524585,1.0812314716104872,-1899,-338,484,4024,334,100687
12:18:35.876,17305,-58.59375,1140.625,-625.9765625,0.55100044485461,-0.1502728485967118,1.271821425928268,-1899,-338,484,4024,334,100687
12:18:35.887,17306,-97.65625,1146.484375,-614.2578125,0.6279694648675598,-0.025656340004316647,1.4062117783318313,-1899,-338,484,4024,334,100687
12:18:35.907,17307,-114.2578125,1109.375,-622.0703125,0.6328563867731439,0.1343903524035634,1.4880677202503654,-1899,-338,484,4024,334,100687
12:18:35.927,17308,-136.71875,1038.0859375,-635.7421875,0.5387831400906496,0.2028072590817411,1.543045591688187,-1876,-324,493,4024,334,100687
12:18:35.947,17309,-125.9765625,992.1875,-641.6015625,0.5265658353266892,0.22724186860966175,1.5699236621688994,-1876,-324,493,4024,334,100687
12:18:35.978,17310,-119.140625,954.1015625,-626.953125,0.6035348553396392,0.2614503219487506,1.5601498183577314,-1876,-324,493,4024,334,100687
12:18:35.998,17311,-130.859375,916.015625,-594.7265625,0.7147123286916779,0.2296853295624538,1.4966198335851377,-1876,-324,493,4024,334,100687
12:18:36.19,17312,-138.671875,866.2109375,-586.9140625,0.7330382858376185,0.17226399717184035,1.4538592669112766,-1876,-324,493,4024,334,100687
12:18:36.40,17313,-127.9296875,794.921875,-605.46875,0.6878342582109653,0.12828170002158323,1.4318681183361481,-1821,-311,516,4024,334,100687
12:18:36.50,17314,-101.5625,739.2578125,-622.0703125,0.6169738905799955,0.11362093430483088,1.470963493580821,-1821,-311,516,4024,334,100687
12:18:36.112,17315,-100.5859375,705.078125,-600.5859375,0.5070181477043528,-0.0012217304763960308,1.510058868825494,-1821,-311,516,4024,334,100687
12:18:36.132,17316,-90.8203125,703.125,-615.234375,0.5119050696099369,0.007330382858376184,1.502728485967118,-1821,-311,516,4024,334,100687
12:18:36.143,17317,-58.59375,702.1484375,-654.296875,0.5448917924726296,0.08429940287132612,1.4770721459628011,-1821,-311,516,4024,334,100687
12:18:36.163,17318,2.9296875,664.0625,-677.734375,0.35185837720205687,0.16737707526625623,1.4269811964305639,-1766,-305,529,4024,334,100687
12:18:36.183,17319,45.8984375,597.65625,-712.890625,-0.0012217304763960308,0.2223549467040776,1.4220942745249798,-1766,-305,529,4024,334,100687
12:18:36.204,17320,111.328125,549.8046875,-663.0859375,-0.021991148575128554,0.1869247628885927,1.3243558364132975,-1766,-305,529,4024,334,100687
12:18:36.224,17321,99.609375,617.1875,-626.953125,0.29810223624063154,0.13194689145077132,1.2461650859239515,-1766,-305,529,4024,334,100687
12:18:36.234,17322,107.421875,693.359375,-632.8125,0.5754350543825305,0.021991148575128554,1.19118721448613,-1706,-300,556,4024,334,100687
12:18:36.255,17323,117.1875,664.0625,-645.5078125,0.7110471372624899,-0.04642575810304917,1.154535300194249,-1706,-300,556,4024,334,100687
12:18:36.275,17324,143.5546875,591.796875,-678.7109375,0.6047565858160352,0.03054326190990077,1.1093312725675961,-1706,-300,556,4024,334,100687
12:18:36.295,17325,165.0390625,556.640625,-621.09375,0.2577851305195625,0.0317649923862968,1.0751228192285072,-1706,-300,556,4024,334,100687
12:18:36.306,17326,147.4609375,612.3046875,-616.2109375,0.09773843811168245,-0.17837264955382048,1.0922270458980516,-1706,-300,556,4024,334,100687
12:18:36.326,17327,166.015625,654.296875,-656.25,0.10140362954087055,-0.22724186860966175,1.1252137687607444,-1660,-302,562,4024,334,100687
12:18:36.347,17328,220.703125,605.46875,-683.59375,0.20891591146372127,-0.1734857276482364,1.0555751316061706,-1660,-302,562,4024,334,100687
12:18:36.367,17329,239.2578125,500.0,-734.375,0.2919935838586513,-0.11362093430483088,0.910189204915043,-1660,-302,562,4024,334,100687
12:18:36.387,17330,236.328125,416.9921875,-749.0234375,0.2907718533822553,0.006108652381980153,0.6853907972581733,-1660,-302,562,4024,334,100687
12:18:36.398,17331,221.6796875,328.125,-712.890625,0.21991148575128555,-0.009773843811168246,0.4850269991292242,-1660,-302,562,4024,334,100687
12:18:36.418,17332,205.078125,238.28125,-723.6328125,0.16859880574265224,0.003665191429188092,0.3029891581462157,-1628,-309,574,4024,334,100687
12:18:36.439,17333,220.703125,193.359375,-734.375,0.1893682238413848,-0.03543018381548489,0.16859880574265224,-1628,-309,574,4024,334,100687
12:18:36.459,17334,201.171875,139.6484375,-722.65625,0.2467895562319982,-0.03298672286269283,-0.006108652381980153,-1628,-309,574,4024,334,100687
12:18:36.479,17335,176.7578125,62.5,-682.6171875,0.18570303241219668,-0.05986479334340551,-0.15271630954950383,-1628,-309,574,4024,334,100687
12:18:36.490,17336,167.96875,105.46875,-696.2890625,0.15760323145508798,-0.06475171524898964,-0.2919935838586513,-1615,-318,568,4024,334,100687
12:18:36.510,17337,159.1796875,179.6875,-674.8046875,0.08552113334772216,-0.10873401239924674,-0.3824016391119576,-1615,-318,568,4024,334,100687
12:18:36.531,17338,172.8515625,238.28125,-697.265625,-0.04398229715025711,-0.06475171524898964,-0.5106833391335408,-1615,-318,568,4024,334,100687
12:18:36.552,17339,201.171875,319.3359375,-711.9140625,-0.10506882097005865,-0.10873401239924674,-0.6462954220135002,-1615,-318,568,4024,334,100687
12:18:36.562,17340,187.5,333.984375,-723.6328125,-0.16859880574265224,-0.16493361431346415,-0.8454374896660533,-1615,-318,568,4024,334,100687
12:18:36.582,17341,141.6015625,366.2109375,-702.1484375,-0.1869247628885927,-0.16004669240788005,-1.0934487763744476,-1626,-317,573,4024,334,100687
12:18:36.602,17342,131.8359375,428.7109375,-672.8515625,-0.3897320219703338,-0.17592918860102844,-1.2400564335419713,-1626,-317,573,4024,334,100687
12:18:36.623,17343,110.3515625,459.9609375,-645.5078125,-0.5717698629533424,-0.20036379812894903,-1.3255775668896934,-1626,-317,573,4024,334,100687
12:18:36.643,17344,102.5390625,550.78125,-762.6953125,-0.5082398781807488,-0.17592918860102844,-1.4379767707181283,-1626,-317,573,4024,334,100687
12:18:36.673,17345,144.53125,663.0859375,-692.3828125,-0.45204027626653137,-0.08429940287132612,-1.3829988992803068,-1626,-317,573,4024,334,100687
12:18:36.694,17346,100.5859375,706.0546875,-672.8515625,-0.4825835381764321,0.004886921905584123,-1.3927727430914751,-1660,-314,572,4024,334,100687
12:18:36.715,17347,58.59375,825.1953125,-777.34375,-0.34330626386728463,0.05986479334340551,-1.3805554383275147,-1660,-314,572,4024,334,100687
12:18:36.735,17348,146.484375,1007.8125,-779.296875,-0.1942551457469689,0.16859880574265224,-1.2131783630612585,-1660,-314,572,4024,334,100687
12:18:36.746,17349,185.546875,1070.3125,-740.234375,-0.2907718533822553,0.11239920382843484,-0.9468411192069238,-1660,-314,572,4024,334,100687
12:18:36.766,17350,132.8125,991.2109375,-683.59375,-0.6120869686744114,-0.012217304763960306,-0.8112290363269644,-1660,-314,572,4024,334,100687
12:18:36.787,17351,181.640625,895.5078125,-769.53125,-0.6096435077216195,0.1307251609743753,-0.8051203839449842,-1707,-306,561,4024,334,100687
12:18:36.818,17352,142.578125,929.6875,-786.1328125,-0.3335324200561164,0.07574728953655392,-0.8100073058505685,-1707,-306,561,4030,333,100677
12:18:36.838,17353,136.71875,892.578125,-673.828125,-0.42516220578581876,0.009773843811168246,-0.4972443038931845,-1707,-306,561,4030,333,100677
12:18:36.859,17354,132.8125,825.1953125,-642.578125,-0.4459316238845512,0.06841690667817772,-0.477696616270848,-1707,-306,561,4030,333,100677
12:18:36.880,17355,153.3203125,845.703125,-691.40625,-0.17470745812463243,0.11239920382843484,-0.5302310267558774,-1740,-303,556,4030,333,100677
12:18:36.952,17356,154.296875,824.21875,-681.640625,-0.021991148575128554,0.006108652381980153,-0.4642575810304917,-1740,-303,556,4030,333,100677
12:18:36.962,17357,115.234375,825.1953125,-637.6953125,-0.12583823906879116,-0.03665191429188092,-0.33108895910332437,-1740,-303,556,4030,333,100677
12:18:36.982,17358,102.5390625,852.5390625,-634.765625,-0.16982053621904827,0.010995574287564277,-0.2553416695667704,-1740,-303,556,4030,333,100677
12:18:37.3,17359,117.1875,843.75,-689.453125,-0.18570303241219668,0.0024434609527920616,-0.26267205242514663,-1740,-303,556,4030,333,100677
12:18:37.23,17360,114.2578125,822.265625,-714.84375,-0.19914206765255302,0.014660765716752368,-0.21746802479849348,-1746,-299,541,4030,333,100677
12:18:37.43,17361,119.140625,809.5703125,-698.2421875,-0.2235766771804736,0.058643062867009474,-0.15638150097869194,-1746,-299,541,4030,333,100677
12:18:37.53,17362,109.375,834.9609375,-692.3828125,-0.1148426647812269,0.06230825429619757,-0.12217304763960309,-1746,-299,541,4030,333,100677
12:18:37.73,17363,107.421875,844.7265625,-695.3125,-0.013439035240356337,0.05619960191421742,-0.09040805525330627,-1746,-299,541,4030,333,100677
12:18:37.94,17364,112.3046875,790.0390625,-701.171875,0.048869219055841226,0.07086036763096978,-0.048869219055841226,-1746,-299,541,4030,333,100677
12:18:37.114,17365,99.609375,766.6015625,-690.4296875,0.05009094953223726,0.052534410485029326,-0.023212879051524585,-1750,-301,544,4030,333,100677
12:18:37.134,17366,79.1015625,739.2578125,-659.1796875,0.012217304763960306,0.05986479334340551,0.009773843811168246,-1750,-301,544,4030,333,100677
12:18:37.145,17367,72.265625,684.5703125,-639.6484375,-0.05497787143782139,0.13194689145077132,0.013439035240356337,-1750,-301,544,4030,333,100677
12:18:37.165,17368,83.0078125,629.8828125,-625.0,-0.07819075048934597,0.10140362954087055,-0.009773843811168246,-1750,-301,544,4030,333,100677
12:18:37.185,17369,41.9921875,603.515625,-613.28125,-0.03665191429188092,-0.0012217304763960308,-0.07696902001294993,-1761,-306,540,4030,333,100677
12:18:37.205,17370,44.921875,574.21875,-592.7734375,-0.04153883619746505,0.020769418098732523,-0.1466076571675237,-1761,-306,540,4030,333,100677
12:18:37.226,17371,24.4140625,514.6484375,-608.3984375,-0.024434609527920613,-0.06597344572538566,-0.2235766771804736,-1761,-306,540,4030,333,100677
12:18:37.236,17372,7.8125,483.3984375,-603.515625,0.05375614096142535,-0.04398229715025711,-0.2858849314766712,-1761,-306,540,4030,333,100677
12:18:37.256,17373,-13.671875,527.34375,-638.671875,0.09285151620609834,-0.04031710572106901,-0.3897320219703338,-1761,-306,540,4030,333,100677
12:18:37.276,17374,10.7421875,597.65625,-626.953125,0.11972958668681102,-0.08185594191853407,-0.4654793115068877,-1761,-305,537,4030,333,100677
12:18:37.297,17375,36.1328125,609.375,-643.5546875,0.11239920382843484,-0.14049900478554353,-0.5705481324769464,-1761,-305,537,4030,333,100677
12:18:37.307,17376,41.015625,637.6953125,-669.921875,0.2871066619530672,-0.12217304763960309,-0.7012732934513217,-1761,-305,537,4030,333,100677
12:18:37.327,17377,33.203125,700.1953125,-647.4609375,0.4068362486398782,-0.13194689145077132,-0.756251164889143,-1761,-305,537,4030,333,100677
12:18:37.347,17378,15.625,786.1328125,-661.1328125,0.477696616270848,-0.23945917337362205,-0.8185594191853407,-1761,-305,537,4030,333,100677
12:18:37.368,17379,39.0625,800.78125,-674.8046875,0.29688050576423547,-0.42638393626221477,-0.8625417163355976,-1781,-312,528,4030,333,100677
12:18:37.388,17380,42.96875,780.2734375,-708.984375,0.052534410485029326,-0.4605923896013036,-0.9065240134858548,-1781,-312,528,4030,333,100677
12:18:37.398,17381,37.109375,873.046875,-663.0859375,0.2748893571891069,-0.476474885794452,-0.8796459430051422,-1781,-312,528,4030,333,100677
12:18:37.419,17382,57.6171875,988.28125,-672.8515625,0.5131268000863329,-0.5461135229490258,-0.7757988525114795,-1781,-312,528,4030,333,100677
12:18:37.439,17383,66.40625,981.4453125,-707.03125,0.5852088981936987,-0.6414085001079162,-0.6939429105929455,-1814,-330,552,4030,333,100677
12:18:37.459,17384,61.5234375,969.7265625,-689.453125,0.7794640439406676,-0.7232644420264501,-0.5314527572322734,-1814,-330,552,4030,333,100677
12:18:37.480,17385,25.390625,985.3515625,-697.265625,0.8784242125287461,-0.7660250087003113,-0.40317105721069013,-1814,-330,552,4030,333,100677
12:18:37.490,17386,-13.671875,961.9140625,-747.0703125,0.7464773210779747,-0.7525859734599549,-0.26022859147235455,-1814,-330,552,4030,333,100677
12:18:37.510,17387,-40.0390625,927.734375,-758.7890625,0.6010913943868472,-0.7122688677388859,-0.14416419621473164,-1814,-330,552,4030,333,100677
12:18:37.531,17388,-65.4296875,916.9921875,-764.6484375,0.43493604959698695,-0.6414085001079162,-0.008552113334772215,-1850,-359,555,4030,333,100677
12:18:37.551,17389,-83.0078125,899.4140625,-779.296875,0.2687807048071268,-0.5412266010434416,0.06475171524898964,-1850,-359,555,4030,333,100677
12:18:37.561,17390,-99.609375,865.234375,-794.921875,0.07819075048934597,-0.3885102914939378,0.15760323145508798,-1850,-359,555,4030,333,100677
12:18:37.581,17391,-117.1875,832.03125,-782.2265625,-0.06963863715457375,-0.2687807048071268,0.24801128670839426,-1850,-359,555,4030,333,100677
12:18:37.602,17392,-158.203125,788.0859375,-749.0234375,-0.0989601685880785,-0.2663372438543347,0.43860124102617504,-1850,-359,555,4030,333,100677
12:18:37.622,17393,-155.2734375,808.59375,-749.0234375,-0.15271630954950383,-0.3640756819660172,0.6328563867731439,-1863,-367,555,4030,333,100677
12:18:37.652,17394,-125.0,737.3046875,-778.3203125,-0.5717698629533424,-0.27611108766550296,0.6499606134426883,-1863,-367,555,4030,333,100677
12:18:37.673,17395,-180.6640625,739.2578125,-748.046875,-0.5106833391335408,-0.27977627909469105,0.7159340591680741,-1863,-367,555,4030,333,100677
12:18:37.693,17396,-193.359375,780.2734375,-697.265625,-0.1111774733520388,-0.2736676267127109,0.9590584239708841,-1863,-367,555,4030,333,100677
12:18:37.713,17397,-166.9921875,745.1171875,-712.890625,0.07452555906015788,-0.2736676267127109,1.0128145649323095,-1851,-358,556,4030,333,100677
12:18:37.734,17398,-174.8046875,634.765625,-760.7421875,-0.1356120828799594,-0.2871066619530672,0.9859364944515968,-1851,-358,556,4030,333,100677
12:18:37.744,17399,-202.1484375,580.078125,-720.703125,-0.10140362954087055,-0.2675589743307307,0.9285151620609834,-1851,-358,556,4030,333,100677
12:18:37.764,17400,-202.1484375,569.3359375,-740.234375,0.11850785621041499,-0.17592918860102844,0.8857545953871224,-1851,-358,556,4030,333,100677
12:18:37.805,17401,-208.984375,509.765625,-765.625,-0.009773843811168246,-0.1429424657383356,0.8808676734815382,-1851,-358,556,4030,333,100677
12:18:37.825,17402,-196.2890625,405.2734375,-760.7421875,-0.04153883619746505,-0.15271630954950383,0.8063421144213803,-1826,-339,541,4024,334,100689
12:18:37.835,17403,-194.3359375,294.921875,-769.53125,-0.04153883619746505,-0.0635299847725936,0.5546656362837981,-1826,-339,541,4024,334,100689
12:18:37.855,17404,-191.40625,243.1640625,-742.1875,0.008552113334772215,-0.08063421144213802,0.3530801076784529,-1826,-339,541,4024,334,100689
12:18:37.876,17405,-216.796875,211.9140625,-729.4921875,0.07330382858376185,-0.10140362954087055,0.16859880574265224,-1826,-339,541,4024,334,100689
12:18:37.896,17406,-200.1953125,172.8515625,-732.421875,0.05375614096142535,-0.04642575810304917,-0.07208209810736582,-1826,-339,541,4024,334,100689
12:18:37.906,17407,-203.125,184.5703125,-761.71875,0.09162978572970232,-0.03787364476827696,-0.3640756819660172,-1805,-326,532,4024,334,100689
12:18:37.926,17408,-188.4765625,283.203125,-725.5859375,0.1233947781159991,-0.0158824961931484,-0.519235452468313,-1805,-326,532,4024,334,100689
12:18:37.946,17409,-210.9375,381.8359375,-724.609375,0.11850785621041499,-0.08552113334772216,-0.6585127267774605,-1805,-326,532,4024,334,100689
12:18:37.967,17410,-233.3984375,430.6640625,-752.9296875,0.0830776723949301,-0.04398229715025711,-0.8234463410909247,-1805,-326,532,4024,334,100689
12:18:37.987,17411,-228.515625,436.5234375,-703.125,0.07574728953655392,-0.026878070480712675,-0.9871582249279928,-1817,-331,538,4024,334,100689
12:18:37.997,17412,-246.09375,436.5234375,-657.2265625,0.021991148575128554,0.014660765716752368,-1.1789699097221698,-1817,-331,538,4024,334,100689
12:18:38.17,17413,-268.5546875,404.296875,-562.5,-0.16493361431346415,-0.019547687622336492,-1.3072516097437528,-1817,-331,538,4024,334,100689
12:18:38.38,17414,-308.59375,430.6640625,-585.9375,-0.21991148575128555,-0.09407324668249437,-1.507615407872702,-1817,-331,538,4024,334,100689
12:18:38.78,17415,-302.734375,560.546875,-680.6640625,-0.2895501229058593,-0.05375614096142535,-1.6383405688470771,-1817,-331,538,4024,334,100689
12:18:38.89,17416,-270.5078125,744.140625,-768.5546875,-0.38484510006474965,0.05375614096142535,-1.4367550402417322,-1849,-352,538,4024,334,100689
12:18:38.109,17417,-269.53125,901.3671875,-716.796875,-0.6035348553396392,0.14172073526193957,-1.1325441516191206,-1849,-352,538,4024,334,100689
12:18:38.129,17418,-228.515625,1029.296875,-717.7734375,-0.6279694648675598,0.278554548618295,-1.0091493735031216,-1849,-352,538,4024,334,100689
12:18:38.150,17419,-180.6640625,1099.609375,-763.671875,-0.5497787143782138,0.24923301718479027,-1.03114052207825,-1849,-352,538,4024,334,100689
12:18:38.170,17420,-157.2265625,1106.4453125,-809.5703125,-0.5033529562751646,0.0952949771588904,-0.8857545953871224,-1849,-352,538,4024,334,100689
12:18:38.180,17421,-141.6015625,1126.953125,-762.6953125,-0.4300491276914028,0.05986479334340551,-0.631634656296748,-1889,-368,539,4024,334,100689
12:18:38.292,17422,-109.375,1036.1328125,-776.3671875,-0.4434881629317592,0.13194689145077132,-0.42516220578581876,-1889,-368,539,4024,334,100689
12:18:38.312,17423,-142.578125,1002.9296875,-780.2734375,-0.20402898955813717,0.1551597705022959,-0.23212879051524585,-1889,-368,539,4024,334,100689
12:18:38.333,17424,-157.2265625,912.109375,-755.859375,-0.19669860669976097,0.12095131716320705,-0.05986479334340551,-1889,-368,539,4024,334,100689
12:18:38.343,17425,-170.8984375,835.9375,-760.7421875,-0.18325957145940464,0.1942551457469689,0.025656340004316647,-1903,-378,536,4024,334,100689
12:18:38.363,17426,-161.1328125,801.7578125,-729.4921875,-0.10018189906447451,0.22846359908605776,0.12095131716320705,-1903,-378,536,4024,334,100689
12:18:38.384,17427,-171.875,770.5078125,-677.734375,0.025656340004316647,0.18448130193580062,0.2028072590817411,-1903,-378,536,4024,334,100689
12:18:38.404,17428,-183.59375,738.28125,-672.8515625,0.06475171524898964,0.197920337176157,0.2211332162276816,-1903,-378,536,4024,334,100689
12:18:38.425,17429,-189.453125,712.890625,-660.15625,0.1343903524035634,0.17715091907742447,0.2687807048071268,-1903,-378,536,4024,334,100689
12:18:38.435,17430,-196.2890625,677.734375,-657.2265625,0.1551597705022959,0.17715091907742447,0.2871066619530672,-1901,-368,543,4024,334,100689
12:18:38.455,17431,-198.2421875,657.2265625,-656.25,0.1905899543177808,0.16737707526625623,0.2541199390903744,-1901,-368,543,4024,334,100689
12:18:38.476,17432,-206.0546875,613.28125,-666.9921875,0.16493361431346415,0.17470745812463243,0.2162462943220974,-1901,-368,543,4024,334,100689
12:18:38.496,17433,-211.9140625,579.1015625,-676.7578125,0.09285151620609834,0.17959438003021652,0.16004669240788005,-1901,-368,543,4024,334,100689
12:18:38.506,17434,-220.703125,550.78125,-686.5234375,0.0024434609527920616,0.1954768762233649,0.09407324668249437,-1901,-368,543,4024,334,100689
12:18:38.527,17435,-219.7265625,537.109375,-677.734375,-0.05742133239061345,0.1954768762233649,0.013439035240356337,-1889,-372,548,4024,334,100689
12:18:38.548,17436,-218.75,531.25,-704.1015625,-0.1111774733520388,0.23335052099164189,-0.10629055144645469,-1889,-372,548,4024,334,100689
12:18:38.568,17437,-215.8203125,546.875,-740.234375,-0.10873401239924674,0.2700024352835228,-0.23579398194443396,-1889,-372,548,4024,334,100689
12:18:38.578,17438,-211.9140625,542.96875,-743.1640625,-0.16371188383706814,0.3029891581462157,-0.35918876006043304,-1889,-372,548,4024,334,100689
12:18:38.598,17439,-216.796875,549.8046875,-715.8203125,-0.27611108766550296,0.33719761148530447,-0.45081854579013536,-1889,-372,548,4024,334,100689
12:18:38.619,17440,-213.8671875,584.9609375,-700.1953125,-0.395840674352314,0.39461894387591795,-0.5644394800949663,-1888,-372,540,4024,334,100689
12:18:38.639,17441,-210.9375,600.5859375,-712.890625,-0.4813618077000361,0.45081854579013536,-0.6963863715457376,-1888,-372,540,4024,334,100689
12:18:38.659,17442,-206.0546875,602.5390625,-721.6796875,-0.7195992505972622,0.4960225734167885,-0.8552113334772216,-1888,-372,540,4024,334,100689
12:18:38.670,17443,-210.9375,558.59375,-733.3984375,-1.0494664792241903,0.5693264020005504,-0.9578366934944882,-1888,-372,540,4024,334,100689
12:18:38.690,17444,-240.234375,599.609375,-676.7578125,-1.112996463996784,0.5693264020005504,-1.0458012877950025,-1882,-375,537,4024,334,100689
12:18:38.711,17445,-241.2109375,672.8515625,-628.90625,-1.0861183935160714,0.6023131248632432,-1.1007791592328238,-1882,-375,537,4024,334,100689
12:18:38.731,17446,-246.09375,721.6796875,-624.0234375,-1.0616837839881508,0.668286570588629,-1.2095131716320704,-1882,-375,537,4024,334,100689
12:18:38.751,17447,-226.5625,712.890625,-621.09375,-1.1716395268637936,0.6695083010650249,-1.269377964975476,-1882,-375,537,4024,334,100689
12:18:38.761,17448,-229.4921875,698.2421875,-615.234375,-1.0983356982800316,0.6291911953439558,-1.341460063082842,-1882,-375,537,4024,334,100689
12:18:38.782,17449,-239.2578125,732.421875,-567.3828125,-0.8503244115716375,0.6255260039147678,-1.385442360233099,-1910,-381,517,4024,334,100689
12:18:38.802,17450,-264.6484375,750.9765625,-558.59375,-0.6389650391551241,0.6059783162924314,-1.430646387859752,-1910,-381,517,4024,334,100689
12:18:38.822,17451,-314.453125,750.9765625,-528.3203125,-0.6365215782023321,0.5412266010434416,-1.4159856221429996,-1910,-381,517,4024,334,100689
12:18:38.843,17452,-328.125,732.421875,-505.859375,-0.6377433086787281,0.5229006438975012,-1.4526375364348805,-1910,-381,517,4030,334,100690
12:18:38.853,17453,-289.0625,728.515625,-534.1796875,-0.6438519610607082,0.5473352534254218,-1.4953981031087415,-1910,-381,517,4030,334,100690
12:18:38.873,17454,-291.9921875,731.4453125,-559.5703125,-0.7110471372624899,0.5070181477043528,-1.5393804002589986,-1931,-394,519,4030,334,100690
12:18:38.893,17455,-336.9140625,733.3984375,-532.2265625,-0.7660250087003113,0.4593706591249076,-1.478293876439197,-1931,-394,519,4030,334,100690
12:18:38.914,17456,-386.71875,808.59375,-524.4140625,-0.6255260039147678,0.4410447019789671,-1.4379767707181283,-1931,-394,519,4030,334,100690
12:18:38.924,17457,-379.8828125,838.8671875,-552.734375,-0.553443905807402,0.43493604959698695,-1.4159856221429996,-1931,-394,519,4030,334,100690
12:18:38.944,17458,-352.5390625,750.0,-553.7109375,-0.631634656296748,0.36041049053682905,-1.4831807983447813,-1955,-420,526,4030,334,100690
12:18:38.964,17459,-393.5546875,729.4921875,-553.7109375,-0.55100044485461,0.33597588100890846,-1.4966198335851377,-1955,-420,526,4030,334,100690
12:18:38.985,17460,-427.734375,756.8359375,-525.390625,-0.43615778007338296,0.36163222101322506,-1.4514158059584847,-1955,-420,526,4030,334,100690
12:18:39.5,17461,-452.1484375,789.0625,-530.2734375,-0.2748893571891069,0.33719761148530447,-1.3658946726107624,-1955,-420,526,4030,334,100690
12:18:39.16,17462,-421.875,755.859375,-501.953125,-0.2822197400474831,0.2553416695667704,-1.3487904459412179,-1955,-420,526,4030,334,100690
12:18:39.36,17463,-431.640625,667.96875,-505.859375,-0.2431243648028101,0.15882496193148402,-1.3610077507051783,-1981,-443,524,4030,334,100690
12:18:39.56,17464,-485.3515625,667.96875,-487.3046875,-0.15393804002589986,0.1233947781159991,-1.3219123754605053,-1981,-443,524,4030,334,100690
12:18:39.77,17465,-506.8359375,716.796875,-474.609375,0.0012217304763960308,0.12095131716320705,-1.2913691135506045,-1981,-443,524,4030,334,100690
12:18:39.87,17466,-493.1640625,706.0546875,-489.2578125,0.039095375244672985,0.03543018381548489,-1.2852604611686242,-1981,-443,524,4030,334,100690
12:18:39.107,17467,-486.328125,657.2265625,-479.4921875,0.03298672286269283,-0.0952949771588904,-1.2938125745033966,-1981,-443,524,4030,334,100690
12:18:39.128,17468,-520.5078125,613.28125,-439.453125,0.023212879051524585,-0.2150245638457014,-1.2840387306922283,-2004,-487,530,4030,334,100690
12:18:39.148,17469,-562.5,587.890625,-438.4765625,0.06963863715457375,-0.2932153143350474,-1.315803723078525,-2004,-487,530,4030,334,100690
12:18:39.169,17470,-548.828125,593.75,-488.28125,0.09407324668249437,-0.3262020371977402,-1.342681793559238,-2004,-487,530,4030,334,100690
12:18:39.199,17471,-545.8984375,563.4765625,-445.3125,0.01710422666954443,-0.40927970959267035,-1.3231341059369013,-2004,-487,530,4030,334,100690
12:18:39.220,17472,-604.4921875,529.296875,-394.53125,0.021991148575128554,-0.46670104198328377,-1.354899098323198,-2032,-526,531,4030,334,100690
12:18:39.241,17473,-640.625,509.765625,-399.4140625,0.04031710572106901,-0.5900958200992829,-1.4086552392846234,-2032,-526,531,4030,334,100690
12:18:39.261,17474,-650.390625,528.3203125,-430.6640625,-0.006108652381980153,-0.6365215782023321,-1.4098769697610194,-2032,-526,531,4030,334,100690
12:18:39.272,17475,-661.1328125,555.6640625,-445.3125,-0.09040805525330627,-0.6805038753525892,-1.390329282138683,-2032,-526,531,4030,334,100690
12:18:39.292,17476,-666.9921875,539.0625,-423.828125,-0.238237442897226,-0.753807703936351,-1.3781119773747228,-2032,-526,531,4030,334,100690
12:18:39.313,17477,-707.03125,530.2734375,-396.484375,-0.3897320219703338,-0.8234463410909247,-1.3793337078511185,-2053,-571,500,4030,334,100690
12:18:39.333,17478,-757.8125,562.5,-434.5703125,-0.41905355340383854,-0.7892378877518359,-1.3597860202287821,-2053,-571,500,4030,334,100690
12:18:39.343,17479,-783.203125,560.546875,-465.8203125,-0.37507125625358145,-0.8124507668033605,-1.3109168011729413,-2053,-571,500,4030,334,100690
12:18:39.364,17480,-827.1484375,483.3984375,-484.375,-0.35185837720205687,-0.8515461420480335,-1.3353514107008617,-2053,-571,500,4030,334,100690
12:18:39.384,17481,-850.5859375,407.2265625,-471.6796875,-0.35552356863124496,-0.8784242125287461,-1.3695598640399507,-2053,-571,500,4030,334,100690
12:18:39.404,17482,-842.7734375,418.9453125,-456.0546875,-0.12583823906879116,-0.8051203839449842,-1.3341296802244655,-2081,-615,484,4030,334,100690
12:18:39.425,17483,-840.8203125,419.921875,-468.75,0.023212879051524585,-0.8356636458548851,-1.2779300783102483,-2081,-615,484,4030,334,100690
12:18:39.435,17484,-855.46875,383.7890625,-437.5,0.1734857276482364,-0.8588765249064098,-1.2034045192500902,-2081,-615,484,4030,334,100690
12:18:39.475,17485,-883.7890625,329.1015625,-410.15625,0.4838052686528282,-0.8503244115716375,-1.154535300194249,-2081,-615,484,4030,334,100690
12:18:39.496,17486,-905.2734375,262.6953125,-406.25,0.5082398781807488,-0.8307767239493008,-1.150870108765061,-2109,-668,450,4030,334,100690
12:18:39.517,17487,-936.5234375,223.6328125,-411.1328125,0.4557054676957195,-0.8197811496617367,-1.1007791592328238,-2109,-668,450,4030,334,100690
12:18:39.527,17488,-954.1015625,247.0703125,-402.34375,0.55100044485461,-0.8283332629965089,-1.0763445497049031,-2109,-668,450,4030,334,100690
12:18:39.547,17489,-987.3046875,300.78125,-398.4375,0.7855726963226478,-0.8662069077647858,-1.0018189906447452,-2109,-668,450,4030,334,100690
12:18:39.568,17490,-974.609375,291.9921875,-358.3984375,1.0604620535117548,-0.9028588220566667,-0.9077457439622509,-2109,-668,450,4030,334,100690
12:18:39.589,17491,-956.0546875,268.5546875,-358.3984375,1.2058479802028823,-0.9590584239708841,-0.8246680715673209,-2110,-716,428,4030,334,100690
12:18:39.619,17492,-958.0078125,218.75,-340.8203125,1.2608258516407038,-0.993266877309973,-0.7183775201208661,-2110,-716,428,4030,334,100690
12:18:39.640,17493,-965.8203125,189.453125,-243.1640625,1.3133602621257332,-1.0042624515975374,-0.6499606134426883,-2110,-716,428,4030,334,100690
12:18:39.660,17494,-955.078125,80.078125,-202.1484375,1.0971139678036357,-0.9407324668249436,-0.6401867696315202,-2110,-716,428,4030,334,100690
12:18:39.670,17495,-941.40625,132.8125,-279.296875,0.6914994496401534,-0.9016370915802707,-0.6023131248632432,-2110,-716,428,4030,334,100690
12:18:39.691,17496,-943.359375,145.5078125,-274.4140625,0.2724458962363148,-0.950506310636112,-0.5253441048502933,-2127,-756,367,4030,334,100690
12:18:39.711,17497,-963.8671875,161.1328125,-238.28125,0.18325957145940464,-0.9395107363485476,-0.4398229715025711,-2127,-756,367,4030,334,100690
12:18:39.732,17498,-992.1875,194.3359375,-219.7265625,0.27733281814189903,-0.8759807515759541,-0.3738495257771854,-2127,-756,367,4030,334,100690
12:18:39.752,17499,-1005.859375,186.5234375,-212.890625,0.4300491276914028,-0.8222246106145287,-0.31887165433936404,-2127,-756,367,4030,334,100690
12:18:39.762,17500,-974.609375,107.421875,-241.2109375,0.4410447019789671,-0.7367034772668065,-0.26022859147235455,-2128,-783,338,4030,334,100690
12:18:39.783,17501,-950.1953125,110.3515625,-256.8359375,0.33964107243809655,-0.6963863715457376,-0.20158552860534507,-2128,-783,338,4030,334,100690
12:18:39.803,17502,-977.5390625,114.2578125,-229.4921875,0.18814649336498873,-0.6291911953439558,-0.1661553447898602,-2128,-783,338,4024,334,100683
12:18:39.824,17503,-1026.3671875,123.046875,-235.3515625,0.2076941809873252,-0.5705481324769464,-0.10995574287564278,-2128,-783,338,4024,334,100683
12:18:39.834,17504,-1053.7109375,120.1171875,-237.3046875,0.4605923896013036,-0.477696616270848,-0.0476474885794452,-2128,-783,338,4024,334,100683
12:18:39.855,17505,-1055.6640625,66.40625,-230.46875,0.6035348553396392,-0.4300491276914028,-0.004886921905584123,-2126,-799,319,4024,334,100683
12:18:39.895,17506,-1040.0390625,11.71875,-207.03125,0.5864306286700948,-0.3799581781591656,0.04276056667386108,-2126,-799,319,4024,334,100683
12:18:39.916,17507,-1036.1328125,-28.3203125,-195.3125,0.4056145181634822,-0.32375857624494814,0.07330382858376185,-2126,-799,319,4024,334,100683
12:18:39.926,17508,-1026.3671875,-6.8359375,-197.265625,0.18448130193580062,-0.2675589743307307,0.09651670763528641,-2126,-799,319,4024,334,100683
12:18:39.946,17509,-1013.671875,29.296875,-171.875,0.12095131716320705,-0.2345722514680379,0.10140362954087055,-2126,-799,319,4024,334,100683
12:18:39.967,17510,-993.1640625,46.875,-138.671875,0.11239920382843484,-0.2150245638457014,0.09651670763528641,-2122,-798,282,4024,334,100683
12:18:39.987,17511,-985.3515625,57.6171875,-130.859375,0.1734857276482364,-0.1893682238413848,0.09407324668249437,-2122,-798,282,4024,334,100683
12:18:39.997,17512,-977.5390625,36.1328125,-132.8125,0.2504547476611863,-0.1551597705022959,0.07330382858376185,-2122,-798,282,4024,334,100683
12:18:40.38,17513,-974.609375,36.1328125,-142.578125,0.2700024352835228,-0.14172073526193957,0.05009094953223726,-2122,-798,282,4024,334,100683
12:18:40.58,17514,-971.6796875,66.40625,-134.765625,0.3139847324337799,-0.13683381335635544,0.03420845333908886,-2127,-797,264,4024,334,100683
12:18:40.79,17515,-973.6328125,74.21875,-52.734375,0.36651914291880927,-0.10506882097005865,0.025656340004316647,-2127,-797,264,4024,334,100683
12:18:40.89,17516,-978.515625,2.9296875,-58.59375,0.18325957145940464,-0.0867428638241182,-0.01832595714594046,-2127,-797,264,4024,334,100683
12:18:40.110,17517,-948.2421875,61.5234375,-104.4921875,0.06108652381980154,-0.11239920382843484,-0.04276056667386108,-2127,-797,264,4024,334,100683
12:18:40.130,17518,-963.8671875,89.84375,-78.125,0.03298672286269283,-0.1148426647812269,-0.03420845333908886,-2127,-797,264,4024,334,100683
12:18:40.150,17519,-983.3984375,58.59375,-79.1015625,0.020769418098732523,-0.12461650859239513,-0.04642575810304917,-2129,-793,273,4024,334,100683
12:18:40.181,17520,-1009.765625,46.875,-135.7421875,0.1270599695451872,-0.09407324668249437,-0.010995574287564277,-2129,-793,273,4024,334,100683
12:18:40.201,17521,-1015.625,50.78125,-151.3671875,0.19914206765255302,-0.08429940287132612,-0.0012217304763960308,-2129,-793,273,4024,334,100683
12:18:40.221,17522,-1017.578125,52.734375,-138.671875,0.26389378290154264,-0.09773843811168245,0.006108652381980153,-2129,-793,273,4024,334,100683
12:18:40.242,17523,-1020.5078125,40.0390625,-130.859375,0.3726277953007894,-0.1075122819228507,0.039095375244672985,-2129,-793,273,4024,334,100683
12:18:40.313,17524,-1016.6015625,0.9765625,-80.078125,0.41172317054546237,-0.08429940287132612,0.05986479334340551,-2123,-792,261,4024,334,100683
12:18:40.333,17525,-998.046875,4.8828125,-77.1484375,0.2748893571891069,-0.0635299847725936,0.024434609527920613,-2123,-792,261,4024,334,100683
12:18:40.343,17526,-980.46875,37.109375,-88.8671875,0.07696902001294993,-0.05619960191421742,0.003665191429188092,-2123,-792,261,4024,334,100683
12:18:40.364,17527,-973.6328125,55.6640625,-82.03125,-0.004886921905584123,-0.052534410485029326,0.007330382858376184,-2123,-792,261,4024,334,100683
12:18:40.384,17528,-980.46875,75.1953125,-93.75,0.03787364476827696,-0.05986479334340551,0.026878070480712675,-2123,-792,261,4024,334,100683
12:18:40.404,17529,-981.4453125,100.5859375,-109.375,0.15638150097869194,-0.05742133239061345,0.04642575810304917,-2119,-792,264,4024,334,100683
12:18:40.424,17530,-983.3984375,95.703125,-101.5625,0.2541199390903744,-0.051312680008633295,0.052534410485029326,-2119,-792,264,4024,334,100683
12:18:40.434,17531,-988.28125,59.5703125,-96.6796875,0.35796702958403703,-0.048869219055841226,0.051312680008633295,-2119,-792,264,4024,334,100683
12:18:40.455,17532,-993.1640625,21.484375,-93.75,0.3262020371977402,-0.03420845333908886,0.048869219055841226,-2119,-792,264,4024,334,100683
12:18:40.475,17533,-990.234375,3.90625,-87.890625,0.23212879051524585,-0.03787364476827696,0.03420845333908886,-2125,-793,260,4024,334,100683
12:18:40.496,17534,-988.28125,15.625,-99.609375,0.1478293876439197,-0.0317649923862968,0.026878070480712675,-2125,-793,260,4024,334,100683
12:18:40.516,17535,-986.328125,19.53125,-101.5625,0.07819075048934597,-0.025656340004316647,0.029321531433504737,-2125,-793,260,4024,334,100683
12:18:40.526,17536,-995.1171875,23.4375,-111.328125,0.07452555906015788,-0.013439035240356337,0.0317649923862968,-2125,-793,260,4024,334,100683
12:18:40.546,17537,-992.1875,53.7109375,-114.2578125,0.09040805525330627,-0.019547687622336492,0.026878070480712675,-2125,-793,260,4024,334,100683
12:18:40.566,17538,-993.1640625,60.546875,-97.65625,0.1270599695451872,-0.02809980095710871,0.029321531433504737,-2126,-791,256,4024,334,100683
12:18:40.587,17539,-984.375,58.59375,-83.0078125,0.1502728485967118,-0.026878070480712675,0.006108652381980153,-2126,-791,256,4024,334,100683
12:18:40.597,17540,-984.375,41.015625,-83.0078125,0.08796459430051422,-0.020769418098732523,0.024434609527920613,-2126,-791,256,4024,334,100683
12:18:40.617,17541,-989.2578125,42.96875,-83.984375,0.03665191429188092,-0.03420845333908886,0.024434609527920613,-2126,-791,256,4024,334,100683
12:18:40.638,17542,-990.234375,43.9453125,-95.703125,-0.0024434609527920616,-0.023212879051524585,0.026878070480712675,-2126,-791,256,4024,334,100683
12:18:40.659,17543,-986.328125,65.4296875,-102.5390625,0.03054326190990077,-0.012217304763960306,0.03298672286269283,-2126,-785,254,4024,334,100683
12:18:40.679,17544,-992.1875,70.3125,-95.703125,0.03543018381548489,-0.02809980095710871,0.04031710572106901,-2126,-785,254,4024,334,100683
12:18:40.689,17545,-989.2578125,55.6640625,-101.5625,0.09407324668249437,-0.010995574287564277,0.04153883619746505,-2126,-785,254,4024,334,100683
12:18:40.709,17546,-984.375,50.78125,-103.515625,0.11850785621041499,-0.0158824961931484,0.03665191429188092,-2126,-785,254,4024,334,100683
12:18:40.730,17547,-981.4453125,46.875,-100.5859375,0.07819075048934597,-0.01710422666954443,0.03054326190990077,-2127,-782,260,4024,334,100683
12:18:40.750,17548,-992.1875,34.1796875,-104.4921875,0.08063421144213802,-0.007330382858376184,0.0158824961931484,-2127,-782,260,4024,334,100683
12:18:40.771,17549,-992.1875,26.3671875,-118.1640625,0.06963863715457375,-0.003665191429188092,0.007330382858376184,-2127,-782,260,4024,334,100683
12:18:40.781,17550,-991.2109375,32.2265625,-113.28125,0.058643062867009474,-0.014660765716752368,0.009773843811168246,-2127,-782,260,4024,334,100683
12:18:40.801,17551,-992.1875,52.734375,-97.65625,0.03787364476827696,-0.014660765716752368,0.01710422666954443,-2127,-782,260,4024,334,100683
12:18:40.821,17552,-983.3984375,57.6171875,-91.796875,0.013439035240356337,-0.020769418098732523,0.021991148575128554,-2128,-779,261,4024,333,100688
12:18:40.842,17553,-983.3984375,37.109375,-84.9609375,-0.007330382858376184,-0.021991148575128554,0.020769418098732523,-2128,-779,261,4024,333,100688
12:18:40.852,17554,-981.4453125,35.15625,-103.515625,-0.0317649923862968,-0.03420845333908886,0.025656340004316647,-2128,-779,261,4024,333,100688
12:18:40.873,17555,-984.375,45.8984375,-116.2109375,-0.051312680008633295,-0.020769418098732523,0.0012217304763960308,-2128,-779,261,4024,333,100688
12:18:40.893,17556,-987.3046875,54.6875,-114.2578125,-0.03054326190990077,-0.029321531433504737,0.008552113334772215,-2128,-779,261,4024,333,100688
12:18:40.914,17557,-989.2578125,57.6171875,-114.2578125,0.0012217304763960308,-0.019547687622336492,0.020769418098732523,-2123,-780,250,4024,333,100688
12:18:40.934,17558,-993.1640625,56.640625,-109.375,0.048869219055841226,-0.023212879051524585,0.009773843811168246,-2123,-780,250,4024,333,100688
12:18:40.944,17559,-989.2578125,57.6171875,-97.65625,0.04520402762665313,-0.04031710572106901,0.0158824961931484,-2123,-780,250,4024,333,100688
12:18:40.965,17560,-979.4921875,55.6640625,-87.890625,0.023212879051524585,-0.03787364476827696,0.023212879051524585,-2123,-780,250,4024,333,100688
12:18:40.985,17561,-978.515625,44.921875,-96.6796875,0.026878070480712675,-0.05009094953223726,0.010995574287564277,-2129,-783,258,4024,333,100688
12:18:41.16,17562,-978.515625,39.0625,-108.3984375,0.02809980095710871,-0.058643062867009474,0.006108652381980153,-2129,-783,258,4024,333,100688
12:18:41.36,17563,-981.4453125,36.1328125,-117.1875,0.026878070480712675,-0.06230825429619757,0.026878070480712675,-2129,-783,258,4024,333,100688
12:18:41.57,17564,-991.2109375,41.9921875,-114.2578125,0.0024434609527920616,-0.05009094953223726,0.01832595714594046,-2129,-783,258,4024,333,100688
12:18:41.78,17565,-994.140625,43.9453125,-102.5390625,-0.009773843811168246,-0.051312680008633295,0.008552113334772215,-2129,-783,258,4024,333,100688
12:18:41.98,17566,-993.1640625,41.015625,-97.65625,-0.0476474885794452,-0.04398229715025711,0.0,-2129,-782,263,4024,333,100688
12:18:41.109,17567,-982.421875,49.8046875,-95.703125,-0.07086036763096978,-0.0635299847725936,0.009773843811168246,-2129,-782,263,4024,333,100688
12:18:41.129,17568,-989.2578125,52.734375,-104.4921875,-0.06108652381980154,-0.051312680008633295,0.0,-2129,-782,263,4024,333,100688
12:18:41.149,17569,-991.2109375,64.453125,-114.2578125,-0.009773843811168246,-0.06230825429619757,0.010995574287564277,-2129,-782,263,4024,333,100688
12:18:41.170,17570,-992.1875,56.640625,-102.5390625,-0.0158824961931484,-0.04642575810304917,0.0012217304763960308,-2129,-782,263,4024,333,100688
12:18:41.180,17571,-987.3046875,52.734375,-107.421875,0.010995574287564277,-0.0476474885794452,-0.0024434609527920616,-2129,-783,268,4024,333,100688
12:18:41.200,17572,-986.328125,56.640625,-103.515625,-0.0024434609527920616,-0.05375614096142535,-0.008552113334772215,-2129,-783,268,4024,333,100688
12:18:41.220,17573,-984.375,45.8984375,-100.5859375,-0.0158824961931484,-0.0635299847725936,-0.0024434609527920616,-2129,-783,268,4024,333,100688
12:18:41.241,17574,-994.140625,58.59375,-111.328125,0.013439035240356337,-0.052534410485029326,-0.004886921905584123,-2129,-783,268,4024,333,100688
12:18:41.261,17575,-989.2578125,57.6171875,-113.28125,0.009773843811168246,-0.06108652381980154,-0.012217304763960306,-2128,-777,252,4024,333,100688
12:18:41.292,17576,-992.1875,51.7578125,-113.28125,0.023212879051524585,-0.048869219055841226,-0.023212879051524585,-2128,-777,252,4024,333,100688
12:18:41.312,17577,-984.375,44.921875,-116.2109375,0.0158824961931484,-0.051312680008633295,-0.003665191429188092,-2128,-777,252,4024,333,100688
12:18:41.333,17578,-978.515625,49.8046875,-112.3046875,0.008552113334772215,-0.052534410485029326,-0.006108652381980153,-2128,-777,252,4024,333,100688
12:18:41.353,17579,-980.46875,57.6171875,-89.84375,-0.02809980095710871,-0.04398229715025711,-0.004886921905584123,-2128,-777,252,4024,333,100688
12:18:41.363,17580,-990.234375,57.6171875,-107.421875,0.006108652381980153,-0.03054326190990077,-0.012217304763960306,-2125,-776,251,4024,333,100688
12:18:41.384,17581,-994.140625,48.828125,-108.3984375,0.0012217304763960308,-0.04398229715025711,-0.0024434609527920616,-2125,-776,251,4024,333,100688
12:18:41.404,17582,-998.046875,42.96875,-124.0234375,0.012217304763960306,-0.03543018381548489,-0.025656340004316647,-2125,-776,251,4024,333,100688
12:18:41.435,17583,-995.1171875,42.96875,-125.0,-0.004886921905584123,-0.01832595714594046,-0.020769418098732523,-2125,-776,251,4024,333,100688
12:18:41.455,17584,-991.2109375,47.8515625,-115.234375,-0.019547687622336492,-0.024434609527920613,-0.003665191429188092,-2125,-776,251,4024,333,100688
12:18:41.475,17585,-990.234375,57.6171875,-101.5625,-0.025656340004316647,-0.025656340004316647,-0.0012217304763960308,-2129,-779,250,4024,333,100688
12:18:41.496,17586,-988.28125,65.4296875,-100.5859375,-0.004886921905584123,-0.023212879051524585,-0.013439035240356337,-2129,-779,250,4024,333,100688
12:18:41.516,17587,-980.46875,52.734375,-96.6796875,-0.009773843811168246,-0.025656340004316647,0.0,-2129,-779,250,4024,333,100688
12:18:41.527,17588,-982.421875,43.9453125,-109.375,0.007330382858376184,-0.0158824961931484,0.004886921905584123,-2129,-779,250,4024,333,100688
12:18:41.547,17589,-983.3984375,41.9921875,-112.3046875,0.0,-0.010995574287564277,-0.006108652381980153,-2125,-776,256,4024,333,100688
12:18:41.568,17590,-986.328125,43.9453125,-104.4921875,-0.03054326190990077,-0.024434609527920613,-0.003665191429188092,-2125,-776,256,4024,333,100688
12:18:41.588,17591,-989.2578125,55.6640625,-99.609375,-0.03054326190990077,-0.03543018381548489,0.013439035240356337,-2125,-776,256,4024,333,100688
12:18:41.599,17592,-987.3046875,51.7578125,-99.609375,-0.012217304763960306,-0.014660765716752368,0.01710422666954443,-2125,-776,256,4024,333,100688
12:18:41.619,17593,-988.28125,43.9453125,-103.515625,-0.009773843811168246,-0.026878070480712675,0.003665191429188092,-2125,-776,256,4024,333,100688
12:18:41.640,17594,-981.4453125,44.921875,-115.234375,-0.010995574287564277,-0.02809980095710871,0.003665191429188092,-2126,-777,263,4024,333,100688
12:18:41.660,17595,-988.28125,49.8046875,-109.375,-0.008552113334772215,-0.029321531433504737,-0.013439035240356337,-2126,-777,263,4024,333,100688
12:18:41.681,17596,-994.140625,53.7109375,-103.515625,-0.006108652381980153,-0.0317649923862968,-0.009773843811168246,-2126,-777,263,4024,333,100688
12:18:41.712,17597,-996.09375,47.8515625,-99.609375,-0.004886921905584123,-0.05009094953223726,-0.012217304763960306,-2126,-777,263,4024,333,100688
12:18:41.732,17598,-993.1640625,41.9921875,-106.4453125,0.010995574287564277,-0.05986479334340551,-0.010995574287564277,-2126,-777,263,4024,333,100688
12:18:41.753,17599,-985.3515625,44.921875,-113.28125,0.008552113334772215,-0.05742133239061345,-0.012217304763960306,-2129,-779,266,4024,333,100688
12:18:41.763,17600,-980.46875,48.828125,-110.3515625,0.008552113334772215,-0.039095375244672985,-0.012217304763960306,-2129,-779,266,4024,333,100688
12:18:41.783,17601,-978.515625,47.8515625,-109.375,-0.008552113334772215,-0.058643062867009474,-0.004886921905584123,-2129,-779,266,4024,333,100688
12:18:41.804,17602,-981.4453125,42.96875,-108.3984375,-0.004886921905584123,-0.0635299847725936,-0.010995574287564277,-2129,-779,266,4030,333,100681
12:18:41.824,17603,-985.3515625,43.9453125,-102.5390625,-0.007330382858376184,-0.04642575810304917,-0.013439035240356337,-2131,-781,265,4030,333,100681
12:18:41.855,17604,-985.3515625,39.0625,-113.28125,-0.012217304763960306,-0.0635299847725936,-0.019547687622336492,-2131,-781,265,4030,333,100681
12:18:41.875,17605,-991.2109375,36.1328125,-114.2578125,-0.014660765716752368,-0.051312680008633295,-0.03054326190990077,-2131,-781,265,4030,333,100681
12:18:41.896,17606,-992.1875,46.875,-122.0703125,-0.03054326190990077,-0.05742133239061345,-0.020769418098732523,-2131,-781,265,4030,333,100681
12:18:41.916,17607,-986.328125,48.828125,-105.46875,-0.0317649923862968,-0.051312680008633295,-0.013439035240356337,-2131,-781,265,4030,333,100681
12:18:41.936,17608,-981.4453125,41.9921875,-106.4453125,-0.01832595714594046,-0.03665191429188092,-0.03665191429188092,-2124,-784,255,4030,333,100681
12:18:41.946,17609,-980.46875,36.1328125,-110.3515625,-0.0158824961931484,-0.039095375244672985,-0.0317649923862968,-2124,-784,255,4030,333,100681
12:18:41.967,17610,-983.3984375,46.875,-115.234375,-0.019547687622336492,-0.03054326190990077,-0.03054326190990077,-2124,-784,255,4030,333,100681
12:18:42.8,17611,-996.09375,57.6171875,-103.515625,-0.04031710572106901,-0.04276056667386108,-0.03420845333908886,-2124,-784,255,4030,333,100681
12:18:42.18,17612,-1000.0,54.6875,-108.3984375,-0.03420845333908886,-0.024434609527920613,-0.03787364476827696,-2124,-784,255,4030,333,100681
12:18:42.38,17613,-998.046875,54.6875,-113.28125,0.0024434609527920616,-0.021991148575128554,-0.029321531433504737,-2132,-783,264,4030,333,100681
12:18:42.59,17614,-990.234375,37.109375,-109.375,0.0,-0.03054326190990077,-0.0317649923862968,-2132,-783,264,4030,333,100681
12:18:42.79,17615,-988.28125,25.390625,-121.09375,0.0012217304763960308,-0.02809980095710871,-0.025656340004316647,-2132,-783,264,4030,333,100681
12:18:42.99,17616,-985.3515625,37.109375,-111.328125,-0.03054326190990077,-0.023212879051524585,-0.03787364476827696,-2132,-783,264,4030,333,100681
12:18:42.110,17617,-980.46875,38.0859375,-103.515625,-0.07086036763096978,-0.0158824961931484,-0.021991148575128554,-2132,-783,264,4030,333,100681
12:18:42.130,17618,-977.5390625,41.9921875,-108.3984375,-0.05375614096142535,-0.024434609527920613,-0.014660765716752368,-2128,-784,253,4030,333,100681
12:18:42.150,17619,-980.46875,40.0390625,-113.28125,-0.048869219055841226,-0.025656340004316647,-0.01710422666954443,-2128,-784,253,4030,333,100681
12:18:42.171,17620,-980.46875,42.96875,-111.328125,-0.025656340004316647,-0.021991148575128554,-0.013439035240356337,-2128,-784,253,4030,333,100681
12:18:42.191,17621,-987.3046875,54.6875,-102.5390625,-0.021991148575128554,-0.014660765716752368,-0.03420845333908886,-2128,-784,253,4030,333,100681
12:18:42.201,17622,-991.2109375,46.875,-107.421875,-0.04031710572106901,-0.026878070480712675,0.0,-2125,-779,257,4030,333,100681
12:18:42.222,17623,-988.28125,50.78125,-101.5625,-0.04031710572106901,-0.03665191429188092,-0.012217304763960306,-2125,-779,257,4030,333,100681
12:18:42.242,17624,-985.3515625,40.0390625,-114.2578125,-0.026878070480712675,-0.0317649923862968,-0.010995574287564277,-2125,-779,257,4030,333,100681
12:18:42.283,17625,-986.328125,43.9453125,-119.140625,0.010995574287564277,-0.04276056667386108,-0.0012217304763960308,-2125,-779,257,4030,333,100681
12:18:42.293,17626,-986.328125,37.109375,-112.3046875,0.006108652381980153,-0.04398229715025711,-0.0012217304763960308,-2125,-779,257,4030,333,100681
12:18:42.313,17627,-986.328125,42.96875,-104.4921875,-0.023212879051524585,-0.04520402762665313,0.0012217304763960308,-2124,-784,274,4030,333,100681
12:18:42.334,17628,-982.421875,46.875,-106.4453125,-0.023212879051524585,-0.04153883619746505,0.008552113334772215,-2124,-784,274,4030,333,100681
12:18:42.354,17629,-986.328125,46.875,-107.421875,-0.012217304763960306,-0.058643062867009474,-0.0024434609527920616,-2124,-784,274,4030,333,100681
12:18:42.364,17630,-986.328125,49.8046875,-111.328125,0.012217304763960306,-0.052534410485029326,0.0,-2124,-784,274,4030,333,100681
12:18:42.385,17631,-993.1640625,44.921875,-109.375,0.014660765716752368,-0.048869219055841226,0.014660765716752368,-2124,-784,274,4030,333,100681
12:18:42.426,17632,-990.234375,41.9921875,-115.234375,0.023212879051524585,-0.04520402762665313,-0.0012217304763960308,-2131,-779,258,4030,333,100681
12:18:42.447,17633,-985.3515625,35.15625,-111.328125,0.0158824961931484,-0.05497787143782139,0.013439035240356337,-2131,-779,258,4030,333,100681
12:18:42.457,17634,-987.3046875,33.203125,-107.421875,0.01832595714594046,-0.06108652381980154,0.021991148575128554,-2131,-779,258,4030,333,100681
12:18:42.478,17635,-982.421875,28.3203125,-111.328125,0.012217304763960306,-0.05375614096142535,0.019547687622336492,-2131,-779,258,4030,333,100681
12:18:42.498,17636,-985.3515625,24.4140625,-115.234375,-0.0158824961931484,-0.04520402762665313,0.013439035240356337,-2125,-782,258,4030,333,100681
12:18:42.519,17637,-987.3046875,40.0390625,-111.328125,-0.014660765716752368,-0.051312680008633295,0.03054326190990077,-2125,-782,258,4030,333,100681
12:18:42.529,17638,-988.28125,40.0390625,-111.328125,-0.020769418098732523,-0.05009094953223726,0.024434609527920613,-2125,-782,258,4030,333,100681
12:18:42.549,17639,-990.234375,43.9453125,-104.4921875,-0.0012217304763960308,-0.04153883619746505,0.023212879051524585,-2125,-782,258,4030,333,100681
12:18:42.570,17640,-987.3046875,39.0625,-108.3984375,0.006108652381980153,-0.04398229715025711,0.01710422666954443,-2125,-782,258,4030,333,100681
12:18:42.591,17641,-992.1875,24.4140625,-112.3046875,0.004886921905584123,-0.048869219055841226,0.01710422666954443,-2127,-782,263,4030,333,100681
12:18:42.611,17642,-987.3046875,27.34375,-110.3515625,-0.020769418098732523,-0.06108652381980154,0.012217304763960306,-2127,-782,263,4030,333,100681
12:18:42.621,17643,-986.328125,30.2734375,-112.3046875,-0.03787364476827696,-0.048869219055841226,0.0,-2127,-782,263,4030,333,100681
12:18:42.642,17644,-986.328125,44.921875,-103.515625,-0.04398229715025711,-0.03665191429188092,0.0012217304763960308,-2127,-782,263,4030,333,100681
12:18:42.662,17645,-986.328125,41.015625,-109.375,-0.0317649923862968,-0.03665191429188092,-0.009773843811168246,-2127,-782,263,4030,333,100681
12:18:42.693,17646,-982.421875,34.1796875,-111.328125,-0.013439035240356337,-0.03787364476827696,0.003665191429188092,-2129,-784,257,4030,333,100681
12:18:42.713,17647,-985.3515625,28.3203125,-109.375,-0.029321531433504737,-0.04642575810304917,-0.004886921905584123,-2129,-784,257,4030,333,100681
12:18:42.733,17648,-992.1875,37.109375,-106.4453125,-0.048869219055841226,-0.03543018381548489,-0.009773843811168246,-2129,-784,257,4030,333,100681
12:18:42.754,17649,-994.140625,39.0625,-101.5625,-0.058643062867009474,-0.03787364476827696,-0.0317649923862968,-2129,-784,257,4030,333,100681
12:18:42.774,17650,-992.1875,45.8984375,-107.421875,-0.03665191429188092,-0.04153883619746505,-0.023212879051524585,-2129,-785,260,4030,333,100681
12:18:42.784,17651,-982.421875,34.1796875,-107.421875,-0.02809980095710871,-0.051312680008633295,-0.020769418098732523,-2129,-785,260,4030,333,100681
12:18:42.804,17652,-980.46875,36.1328125,-108.3984375,-0.019547687622336492,-0.0476474885794452,-0.019547687622336492,-2129,-785,260,4018,334,100691
12:18:42.845,17653,-979.4921875,35.15625,-103.515625,-0.039095375244672985,-0.04153883619746505,-0.0158824961931484,-2129,-785,260,4018,334,100691
12:18:42.865,17654,-986.328125,32.2265625,-108.3984375,-0.04520402762665313,-0.05009094953223726,-0.013439035240356337,-2129,-785,260,4018,334,100691
12:18:42.876,17655,-989.2578125,33.203125,-109.375,-0.03298672286269283,-0.04398229715025711,-0.006108652381980153,-2126,-782,257,4018,334,100691
12:18:42.896,17656,-987.3046875,37.109375,-109.375,-0.04520402762665313,-0.0476474885794452,-0.0012217304763960308,-2126,-782,257,4018,334,100691
12:18:42.916,17657,-984.375,38.0859375,-117.1875,-0.04642575810304917,-0.04520402762665313,0.0,-2126,-782,257,4018,334,100691
12:18:42.937,17658,-992.1875,35.15625,-121.09375,-0.029321531433504737,-0.06597344572538566,0.012217304763960306,-2126,-782,257,4018,334,100691
12:18:42.957,17659,-993.1640625,37.109375,-123.046875,-0.01710422666954443,-0.07086036763096978,0.0158824961931484,-2126,-782,257,4018,334,100691
12:18:42.967,17660,-996.09375,48.828125,-103.515625,0.02809980095710871,-0.06108652381980154,0.01832595714594046,-2134,-787,259,4018,334,100691
12:18:42.988,17661,-997.0703125,75.1953125,-71.2890625,0.0158824961931484,-0.06230825429619757,0.029321531433504737,-2134,-787,259,4018,334,100691
12:18:43.8,17662,-995.1171875,49.8046875,-79.1015625,0.048869219055841226,-0.08918632477691024,0.04520402762665313,-2134,-787,259,4018,334,100691
12:18:43.29,17663,-990.234375,48.828125,-91.796875,0.05497787143782139,-0.07452555906015788,0.05619960191421742,-2134,-787,259,4018,334,100691
12:18:43.39,17664,-979.4921875,54.6875,-90.8203125,0.05009094953223726,-0.0830776723949301,0.03665191429188092,-2125,-782,255,4018,334,100691
12:18:43.59,17665,-976.5625,43.9453125,-107.421875,0.06841690667817772,-0.09407324668249437,0.024434609527920613,-2125,-782,255,4018,334,100691
12:18:43.80,17666,-974.609375,38.0859375,-100.5859375,0.07819075048934597,-0.08063421144213802,0.009773843811168246,-2125,-782,255,4018,334,100691
12:18:43.120,17667,-982.421875,34.1796875,-99.609375,0.09285151620609834,-0.07941248096574201,0.014660765716752368,-2125,-782,255,4018,334,100691
12:18:43.130,17668,-983.3984375,29.296875,-94.7265625,0.051312680008633295,-0.07208209810736582,-0.0024434609527920616,-2125,-782,255,4018,334,100691
12:18:43.151,17669,-983.3984375,27.34375,-116.2109375,0.026878070480712675,-0.0635299847725936,0.0012217304763960308,-2127,-782,249,4018,334,100691
12:18:43.171,17670,-987.3046875,27.34375,-125.0,0.0,-0.051312680008633295,-0.004886921905584123,-2127,-782,249,4018,334,100691
12:18:43.191,17671,-997.0703125,26.3671875,-124.0234375,-0.04153883619746505,-0.05009094953223726,-0.012217304763960306,-2127,-782,249,4018,334,100691
12:18:43.212,17672,-994.140625,35.15625,-120.1171875,-0.04031710572106901,-0.04520402762665313,-0.01710422666954443,-2127,-782,249,4018,334,100691
