Timestamp,SampleNr,AccX [mg],AccY [mg],AccZ [mg],GyrX [rad/s],GyrY [rad/s],GyrZ [rad/s],MagX [mGs],MagY [mGs],-MagZ [mGs],Battery [mV],Temperature [0.1C],Pressure[Pa]
11:53:22.450,19248,83.0078125,-32.2265625,-1022.4609375,-0.008552113334772215,0.014660765716752368,-0.02809980095710871,-1890,-548,-30,4154,307,100609
11:53:22.460,19249,87.890625,-9.765625,-1023.4375,-0.03787364476827696,0.021991148575128554,-0.03298672286269283,-1881,-546,-27,4154,307,100609
11:53:22.481,19250,83.0078125,4.8828125,-1021.484375,0.008552113334772215,0.014660765716752368,-0.025656340004316647,-1888,-549,-33,4154,307,100609
11:53:22.501,19251,87.890625,-8.7890625,-1014.6484375,0.05497787143782139,-0.0012217304763960308,-0.01710422666954443,-1888,-549,-30,4154,307,100609
11:53:22.511,19252,85.9375,-32.2265625,-1008.7890625,0.0476474885794452,-0.006108652381980153,-0.010995574287564277,-1888,-549,-29,4154,307,100608
11:53:22.532,19253,92.7734375,-31.25,-1018.5546875,-0.05986479334340551,0.008552113334772215,-0.0024434609527920616,-1881,-551,-34,4154,307,100608
11:53:22.552,19254,87.890625,3.90625,-1025.390625,-0.0830776723949301,0.013439035240356337,0.0,-1887,-552,-26,4154,307,100608
11:53:22.573,19255,90.8203125,0.9765625,-1021.484375,0.03298672286269283,0.0158824961931484,-0.007330382858376184,-1891,-552,-36,4154,307,100608
11:53:22.594,19256,87.890625,-20.5078125,-1007.8125,0.07696902001294993,0.013439035240356337,-0.012217304763960306,-1891,-552,-31,4154,307,100608
11:53:22.604,19257,85.9375,-30.2734375,-1013.671875,0.04398229715025711,0.007330382858376184,-0.008552113334772215,-1889,-557,-27,4154,307,100608
11:53:22.625,19258,80.078125,-29.296875,-1013.671875,-0.01710422666954443,0.0024434609527920616,0.003665191429188092,-1891,-552,-30,4154,307,100608
11:53:22.645,19259,85.9375,-31.25,-1001.953125,-0.06841690667817772,0.010995574287564277,0.021991148575128554,-1890,-552,-32,4154,307,100608
11:53:22.666,19260,91.796875,-11.71875,-1005.859375,-0.08552113334772216,0.010995574287564277,0.0158824961931484,-1877,-545,-35,4154,307,100608
11:53:22.676,19261,87.890625,-3.90625,-1018.5546875,-0.003665191429188092,0.003665191429188092,0.0024434609527920616,-1893,-547,-23,4154,307,100608
11:53:22.696,19262,86.9140625,-29.296875,-1012.6953125,0.10629055144645469,-0.0012217304763960308,-0.03543018381548489,-1888,-553,-28,4154,307,100608
11:53:22.808,19263,82.03125,-46.875,-1019.53125,0.03665191429188092,-0.009773843811168246,-0.039095375244672985,-1889,-553,-25,4154,307,100608
11:53:22.828,19264,83.0078125,-26.3671875,-1015.625,-0.05619960191421742,-0.0024434609527920616,-0.03665191429188092,-1892,-551,-26,4154,307,100608
11:53:22.848,19265,83.0078125,4.8828125,-1020.5078125,-0.04642575810304917,-0.009773843811168246,-0.039095375244672985,-1893,-552,-33,4154,307,100608
11:53:22.859,19266,75.1953125,-2.9296875,-1029.296875,0.026878070480712675,-0.0024434609527920616,-0.029321531433504737,-1890,-553,-30,4154,307,100608
11:53:22.879,19267,85.9375,-19.53125,-1028.3203125,0.05497787143782139,0.012217304763960306,-0.024434609527920613,-1892,-553,-34,4154,307,100608
11:53:22.899,19268,86.9140625,-24.4140625,-1031.25,0.007330382858376184,0.010995574287564277,-0.021991148575128554,-1892,-551,-32,4154,307,100608
11:53:22.920,19269,85.9375,-12.6953125,-1031.25,-0.03543018381548489,0.010995574287564277,-0.021991148575128554,-1895,-550,-40,4154,307,100608
11:53:22.930,19270,88.8671875,-0.9765625,-1031.25,-0.014660765716752368,0.006108652381980153,-0.025656340004316647,-1894,-551,-33,4154,307,100608
11:53:22.951,19271,83.984375,-0.9765625,-1022.4609375,0.03543018381548489,0.01832595714594046,-0.02809980095710871,-1896,-552,-22,4154,307,100608
11:53:22.971,19272,86.9140625,-15.625,-1031.25,0.05009094953223726,0.0158824961931484,-0.014660765716752368,-1894,-553,-24,4154,307,100608
11:53:22.991,19273,87.890625,-15.625,-1026.3671875,0.029321531433504737,0.025656340004316647,-0.009773843811168246,-1889,-555,-40,4154,307,100608
11:53:23.12,19274,85.9375,-7.8125,-1026.3671875,0.008552113334772215,0.029321531433504737,-0.0158824961931484,-1883,-549,-32,4154,307,100608
11:53:23.22,19275,86.9140625,-3.90625,-1022.4609375,0.029321531433504737,0.0317649923862968,-0.012217304763960306,-1892,-552,-37,4154,307,100608
11:53:23.42,19276,88.8671875,-7.8125,-1017.578125,0.05619960191421742,0.03054326190990077,0.0012217304763960308,-1890,-552,-29,4154,307,100608
11:53:23.63,19277,83.0078125,-24.4140625,-1003.90625,0.05986479334340551,0.025656340004316647,-0.003665191429188092,-1877,-552,-29,4154,307,100608
11:53:23.83,19278,83.984375,-27.34375,-1003.90625,0.024434609527920613,0.03543018381548489,0.0012217304763960308,-1888,-550,-34,4154,307,100608
11:53:23.104,19279,86.9140625,-17.578125,-1000.9765625,-0.026878070480712675,0.03054326190990077,0.0158824961931484,-1889,-554,-26,4154,307,100608
11:53:23.114,19280,86.9140625,-14.6484375,-1013.671875,0.013439035240356337,0.01710422666954443,0.009773843811168246,-1886,-554,-39,4154,307,100608
11:53:23.134,19281,87.890625,-29.296875,-1016.6015625,0.023212879051524585,0.014660765716752368,0.0012217304763960308,-1873,-554,-26,4154,307,100608
11:53:23.155,19282,92.7734375,-29.296875,-1009.765625,0.03665191429188092,0.012217304763960306,-0.021991148575128554,-1893,-559,-39,4154,307,100608
11:53:23.175,19283,89.84375,-26.3671875,-1010.7421875,0.0671951762017817,0.004886921905584123,-0.03420845333908886,-1898,-557,-33,4154,307,100608
11:53:23.185,19284,88.8671875,-31.25,-1021.484375,0.07452555906015788,0.006108652381980153,-0.03054326190990077,-1889,-557,-39,4154,307,100608
11:53:23.205,19285,86.9140625,-33.203125,-1015.625,0.04520402762665313,0.010995574287564277,-0.024434609527920613,-1891,-557,-29,4154,307,100608
11:53:23.226,19286,81.0546875,-29.296875,-1014.6484375,-0.0012217304763960308,0.013439035240356337,-0.029321531433504737,-1895,-560,-25,4154,307,100608
11:53:23.246,19287,86.9140625,-19.53125,-1000.9765625,-0.007330382858376184,0.0158824961931484,-0.0158824961931484,-1889,-556,-35,4154,307,100608
11:53:23.267,19288,89.84375,-19.53125,-1010.7421875,0.004886921905584123,0.0158824961931484,-0.008552113334772215,-1884,-556,-26,4154,307,100608
11:53:23.277,19289,87.890625,-21.484375,-1023.4375,0.0158824961931484,0.0,-0.013439035240356337,-1887,-561,-37,4154,307,100608
11:53:23.297,19290,89.84375,-25.390625,-1018.5546875,0.03298672286269283,0.003665191429188092,-0.019547687622336492,-1886,-566,-36,4154,307,100608
11:53:23.317,19291,92.7734375,-28.3203125,-1011.71875,0.026878070480712675,0.0,-0.0158824961931484,-1884,-559,-42,4154,307,100608
11:53:23.338,19292,93.75,-21.484375,-1008.7890625,0.01832595714594046,0.004886921905584123,-0.013439035240356337,-1886,-558,-39,4154,307,100608
11:53:23.358,19293,87.890625,-19.53125,-1004.8828125,0.0158824961931484,0.010995574287564277,-0.0158824961931484,-1891,-557,-37,4154,307,100608
11:53:23.368,19294,90.8203125,-19.53125,-1002.9296875,0.039095375244672985,-0.003665191429188092,-0.008552113334772215,-1888,-558,-33,4154,307,100608
11:53:23.388,19295,84.9609375,-24.4140625,-1006.8359375,0.023212879051524585,0.0,-0.007330382858376184,-1885,-559,-28,4154,307,100608
11:53:23.409,19296,93.75,-29.296875,-996.09375,-0.0012217304763960308,-0.012217304763960306,0.009773843811168246,-1889,-556,-42,4154,307,100608
11:53:23.429,19297,91.796875,-17.578125,-986.328125,0.006108652381980153,-0.012217304763960306,0.0012217304763960308,-1883,-560,-33,4154,307,100608
11:53:23.449,19298,82.03125,-20.5078125,-968.75,0.0158824961931484,-0.019547687622336492,0.012217304763960306,-1886,-556,-32,4154,307,100608
11:53:23.459,19299,88.8671875,-9.765625,-938.4765625,0.01832595714594046,-0.03543018381548489,0.01832595714594046,-1893,-559,-32,4154,307,100608
11:53:23.480,19300,92.7734375,-2.9296875,-927.734375,0.014660765716752368,-0.07452555906015788,0.014660765716752368,-1894,-561,-29,4154,307,100608
11:53:23.500,19301,85.9375,-4.8828125,-928.7109375,0.048869219055841226,-0.11606439525762292,0.014660765716752368,-1892,-560,-37,4154,307,100608
11:53:23.520,19302,84.9609375,-11.71875,-924.8046875,0.08552113334772216,-0.15760323145508798,0.025656340004316647,-1880,-557,-36,4166,307,100608
11:53:23.531,19303,83.984375,-36.1328125,-922.8515625,0.08429940287132612,-0.17959438003021652,0.039095375244672985,-1875,-553,-32,4166,307,100608
11:53:23.551,19304,77.1484375,-45.8984375,-919.921875,-0.01832595714594046,-0.197920337176157,0.05009094953223726,-1902,-554,-20,4166,307,100608
11:53:23.572,19305,83.0078125,-33.203125,-924.8046875,-0.04398229715025711,-0.2186897552748895,0.048869219055841226,-1888,-559,-32,4166,307,100608
11:53:23.592,19306,75.1953125,-20.5078125,-921.875,-0.01832595714594046,-0.24801128670839426,0.04642575810304917,-1900,-561,-29,4166,307,100608
11:53:23.613,19307,54.6875,-31.25,-934.5703125,0.006108652381980153,-0.28344147052387914,0.05009094953223726,-1909,-555,-41,4166,307,100608
11:53:23.623,19308,55.6640625,-46.875,-941.40625,-0.01710422666954443,-0.31520646291017596,0.03665191429188092,-1911,-561,-30,4166,307,100608
11:53:23.643,19309,49.8046875,-34.1796875,-939.453125,-0.04153883619746505,-0.3481931857728688,0.023212879051524585,-1898,-555,-49,4166,307,100608
11:53:23.663,19310,43.9453125,-6.8359375,-955.078125,0.03420845333908886,-0.38606683054114566,0.01710422666954443,-1915,-560,-45,4166,307,100608
11:53:23.684,19311,31.25,-2.9296875,-913.0859375,0.12950343049797927,-0.42638393626221477,0.009773843811168246,-1919,-560,-41,4166,307,100608
11:53:23.714,19312,17.578125,-4.8828125,-849.609375,0.1233947781159991,-0.48991392103480835,0.026878070480712675,-1924,-561,-41,4166,307,100608
11:53:23.735,19313,8.7890625,2.9296875,-887.6953125,0.11972958668681102,-0.5619960191421741,0.08429940287132612,-1930,-568,-44,4166,307,100608
11:53:23.755,19314,-0.9765625,13.671875,-942.3828125,0.17470745812463243,-0.6157521601035995,0.13194689145077132,-1933,-562,-41,4166,307,100608
11:53:23.775,19315,-5.859375,-2.9296875,-922.8515625,0.21991148575128555,-0.6377433086787281,0.12461650859239513,-1941,-564,-54,4166,307,100608
11:53:23.785,19316,-28.3203125,-16.6015625,-906.25,0.23701571242082997,-0.6536258048718764,0.10873401239924674,-1934,-563,-55,4166,307,100608
11:53:23.806,19317,-49.8046875,-20.5078125,-939.453125,0.25656340004316647,-0.6499606134426883,0.09162978572970232,-1952,-574,-66,4166,307,100608
11:53:23.826,19318,-62.5,-29.296875,-953.125,0.22846359908605776,-0.6792821448761931,0.11728612573401895,-1956,-572,-46,4166,307,100608
11:53:23.867,19319,-79.1015625,-47.8515625,-980.46875,0.17470745812463243,-0.6988298324985297,0.14905111812031577,-1963,-571,-56,4166,307,100608
11:53:23.877,19320,-93.75,-56.640625,-982.421875,0.0989601685880785,-0.6976081020221336,0.1710422666954443,-1969,-570,-65,4166,307,100608
11:53:23.898,19321,-108.3984375,-59.5703125,-953.125,-0.052534410485029326,-0.668286570588629,0.17837264955382048,-1974,-571,-60,4166,307,100608
11:53:23.918,19322,-131.8359375,-58.59375,-961.9140625,-0.10995574287564278,-0.6621779182066487,0.18325957145940464,-1982,-569,-71,4166,307,100608
11:53:23.938,19323,-124.0234375,-29.296875,-988.28125,-0.05497787143782139,-0.6792821448761931,0.2113593724165133,-1981,-569,-69,4166,307,100608
11:53:23.948,19324,-132.8125,-50.78125,-986.328125,0.0,-0.6939429105929455,0.2150245638457014,-1993,-571,-65,4166,307,100608
11:53:23.969,19325,-170.8984375,-82.03125,-974.609375,-0.05986479334340551,-0.6939429105929455,0.20891591146372127,-2000,-571,-82,4166,307,100608
11:53:23.989,19326,-182.6171875,-68.359375,-977.5390625,-0.1466076571675237,-0.678060414399797,0.197920337176157,-2008,-564,-79,4166,307,100608
11:53:24.9,19327,-175.78125,-65.4296875,-978.515625,-0.1661553447898602,-0.6743952229706089,0.18814649336498873,-2014,-563,-77,4166,307,100608
11:53:24.30,19328,-200.1953125,-70.3125,-974.609375,-0.15882496193148402,-0.6866125277345693,0.16982053621904827,-2019,-563,-75,4166,307,100608
11:53:24.40,19329,-221.6796875,-74.21875,-958.0078125,-0.20891591146372127,-0.6902777191637574,0.15760323145508798,-2023,-563,-89,4166,307,100608
11:53:24.60,19330,-239.2578125,-64.453125,-913.0859375,-0.28099800957108706,-0.6951646410693415,0.12950343049797927,-2028,-552,-87,4166,307,100608
11:53:24.80,19331,-253.90625,-49.8046875,-889.6484375,-0.33597588100890846,-0.7195992505972622,0.10262536001726659,-2033,-551,-90,4166,307,100608
11:53:24.101,19332,-273.4375,-24.4140625,-876.953125,-0.33964107243809655,-0.7586946258419351,0.10995574287564278,-2043,-551,-85,4166,307,100608
11:53:24.131,19333,-265.625,-7.8125,-860.3515625,-0.3445279943436807,-0.8075638448977764,0.1111774733520388,-2049,-540,-85,4166,307,100608
11:53:24.152,19334,-315.4296875,-0.0,-847.65625,-0.36163222101322506,-0.8686503687175778,0.09407324668249437,-2058,-543,-100,4166,307,100608
11:53:24.172,19335,-309.5703125,21.484375,-826.171875,-0.35430183815484895,-0.8833111344343304,0.11239920382843484,-2064,-542,-107,4166,307,100608
11:53:24.192,19336,-328.125,25.390625,-752.9296875,-0.34086280291449256,-0.9175195877734192,0.10018189906447451,-2070,-539,-108,4166,307,100608
11:53:24.212,19337,-428.7109375,19.53125,-705.078125,-0.437379510549779,-1.0201449477906857,0.1270599695451872,-2065,-532,-113,4166,307,100608
11:53:24.222,19338,-425.78125,24.4140625,-752.9296875,-0.44837508483734323,-1.1105530030439918,0.16982053621904827,-2081,-535,-128,4166,307,100608
11:53:24.243,19339,-362.3046875,52.734375,-791.9921875,-0.2907718533822553,-1.2571606602115155,0.20158552860534507,-2098,-529,-131,4166,307,100608
11:53:24.283,19340,-375.0,90.8203125,-749.0234375,0.021991148575128554,-1.385442360233099,0.16249015336067207,-2098,-529,-125,4166,307,100608
11:53:24.293,19341,-518.5546875,106.4453125,-737.3046875,0.477696616270848,-1.4416419621473162,0.10873401239924674,-2112,-529,-141,4166,307,100608
11:53:24.313,19342,-566.40625,53.7109375,-763.671875,0.9248499706317953,-1.4929546421559494,0.10995574287564278,-2118,-531,-154,4166,307,100608
11:53:24.334,19343,-528.3203125,-37.109375,-761.71875,1.070235897322923,-1.5540411659757511,0.1343903524035634,-2132,-534,-156,4166,307,100608
11:53:24.354,19344,-535.15625,-63.4765625,-828.125,1.0079276430267254,-1.5858061583620482,0.1954768762233649,-2129,-540,-171,4166,307,100608
11:53:24.374,19345,-629.8828125,-52.734375,-803.7109375,0.8649851772883896,-1.5454890526409788,0.18814649336498873,-2156,-547,-197,4166,307,100608
11:53:24.384,19346,-695.3125,-74.21875,-736.328125,0.6792821448761931,-1.5063936773963058,0.17715091907742447,-2155,-545,-191,4166,307,100608
11:53:24.405,19347,-711.9140625,-115.234375,-782.2265625,0.437379510549779,-1.4795156069155933,0.2504547476611863,-2167,-547,-202,4166,307,100608
11:53:24.426,19348,-690.4296875,-126.953125,-812.5,0.16982053621904827,-1.4941763726323456,0.3469714552964728,-2179,-545,-216,4166,307,100608
11:53:24.446,19349,-702.1484375,-102.5390625,-791.9921875,0.023212879051524585,-1.4880677202503654,0.34941491624926485,-2177,-543,-227,4166,307,100608
11:53:24.466,19350,-739.2578125,-22.4609375,-755.859375,0.04276056667386108,-1.44042023167092,0.26022859147235455,-2187,-539,-241,4166,307,100608
11:53:24.476,19351,-792.96875,13.671875,-678.7109375,0.021991148575128554,-1.3891075516622868,0.16126842288427604,-2179,-534,-251,4166,307,100608
11:53:24.497,19352,-863.28125,-28.3203125,-666.015625,-0.11606439525762292,-1.3707815945163466,0.16737707526625623,-2195,-541,-258,4154,307,100610
11:53:24.517,19353,-840.8203125,-49.8046875,-762.6953125,-0.2956587752878394,-1.3768902468983266,0.26022859147235455,-2207,-539,-278,4154,307,100610
11:53:24.547,19354,-793.9453125,-3.90625,-763.671875,-0.39339721339952194,-1.4611896497696528,0.3469714552964728,-2207,-530,-288,4154,307,100610
11:53:24.568,19355,-815.4296875,52.734375,-639.6484375,-0.2736676267127109,-1.4343115792889403,0.2663372438543347,-2212,-524,-300,4154,307,100610
11:53:24.588,19356,-887.6953125,90.8203125,-537.109375,-0.14049900478554353,-1.3634512116579702,0.16859880574265224,-2221,-526,-320,4154,307,100610
11:53:24.608,19357,-968.75,52.734375,-639.6484375,0.03543018381548489,-1.3463469849884258,0.1820378409830086,-2231,-528,-334,4154,307,100610
11:53:24.629,19358,-948.2421875,-0.0,-666.9921875,-0.07574728953655392,-1.3781119773747228,0.2724458962363148,-2218,-520,-330,4154,307,100610
11:53:24.639,19359,-944.3359375,-16.6015625,-598.6328125,-0.3897320219703338,-1.4062117783318313,0.36163222101322506,-2231,-522,-347,4154,307,100610
11:53:24.659,19360,-949.21875,36.1328125,-503.90625,-0.5986479334340551,-1.3976596649970594,0.36651914291880927,-2238,-516,-355,4154,307,100610
11:53:24.700,19361,-988.28125,96.6796875,-501.953125,-0.5180137219919171,-1.3658946726107624,0.33964107243809655,-2231,-503,-374,4154,307,100610
11:53:24.721,19362,-1013.671875,92.7734375,-573.2421875,-0.1343903524035634,-1.3976596649970594,0.4227187448330266,-2241,-508,-372,4154,307,100610
11:53:24.731,19363,-1044.921875,61.5234375,-589.84375,-0.03054326190990077,-1.4001031259498513,0.516791991515521,-2241,-499,-396,4154,307,100610
11:53:24.751,19364,-1034.1796875,1.953125,-499.0234375,-0.23579398194443396,-1.3390166021300498,0.5742133239061344,-2243,-495,-399,4154,307,100610
11:53:24.772,19365,-984.375,-6.8359375,-396.484375,-0.5461135229490258,-1.2522737383059315,0.5290092962794813,-2239,-494,-415,4154,307,100610
11:53:24.792,19366,-961.9140625,44.921875,-466.796875,-0.594982742004867,-1.1972958668681102,0.4715879638888679,-2244,-485,-414,4154,307,100610
11:53:24.803,19367,-922.8515625,84.9609375,-511.71875,-0.5632177496185702,-1.2009610582972983,0.4654793115068877,-2243,-481,-436,4154,307,100610
11:53:24.843,19368,-907.2265625,87.890625,-487.3046875,-0.5522221753310059,-1.1924089449625261,0.45204027626653137,-2245,-479,-439,4154,307,100610
11:53:24.864,19369,-911.1328125,68.359375,-429.6875,-0.6817256058289851,-1.156978761147041,0.3909537524467298,-2241,-478,-450,4154,307,100610
11:53:24.884,19370,-965.8203125,102.5390625,-389.6484375,-0.9187413182498152,-1.0482447487477944,0.2150245638457014,-2240,-470,-463,4154,307,100610
11:53:24.894,19371,-1049.8046875,180.6640625,-433.59375,-0.8148942277561525,-0.994488607786369,0.14172073526193957,-2236,-474,-454,4154,307,100610
11:53:24.915,19372,-1049.8046875,197.265625,-442.3828125,-0.6597344572538566,-0.9663888068292604,0.1343903524035634,-2235,-465,-478,4154,307,100610
11:53:24.935,19373,-1025.390625,167.96875,-435.546875,-0.6304129258203519,-0.9517280411125081,0.16859880574265224,-2243,-464,-486,4154,307,100610
11:53:24.956,19374,-1001.953125,139.6484375,-408.203125,-0.675616953447005,-0.9065240134858548,0.16859880574265224,-2243,-466,-482,4154,307,100610
11:53:24.966,19375,-999.0234375,156.25,-361.328125,-0.6951646410693415,-0.8552113334772216,0.14049900478554353,-2244,-467,-488,4154,307,100610
11:53:24.986,19376,-1011.71875,188.4765625,-334.9609375,-0.6511823439190844,-0.7819075048934596,0.08552113334772216,-2242,-471,-502,4154,307,100610
11:53:25.7,19377,-1005.859375,210.9375,-302.734375,-0.5180137219919171,-0.7293730944084303,0.04031710572106901,-2238,-467,-503,4154,307,100610
11:53:25.27,19378,-1039.0625,224.609375,-314.453125,-0.33108895910332437,-0.6817256058289851,0.04642575810304917,-2240,-464,-511,4154,307,100610
11:53:25.48,19379,-1055.6640625,205.078125,-314.453125,-0.16493361431346415,-0.5900958200992829,0.11362093430483088,-2228,-466,-517,4154,307,100610
11:53:25.58,19380,-1042.96875,163.0859375,-273.4375,-0.2419026343264141,-0.515570261039125,0.16737707526625623,-2240,-467,-526,4154,307,100610
11:53:25.78,19381,-1031.25,154.296875,-249.0234375,-0.3298672286269283,-0.4532620067429274,0.20891591146372127,-2237,-460,-528,4154,307,100610
11:53:25.119,19382,-1047.8515625,183.59375,-253.90625,-0.31154127148098787,-0.38484510006474965,0.2431243648028101,-2234,-459,-541,4154,307,100610
11:53:25.139,19383,-1049.8046875,186.5234375,-229.4921875,-0.23701571242082997,-0.32498030672134415,0.2504547476611863,-2231,-458,-522,4154,307,100610
11:53:25.149,19384,-1028.3203125,178.7109375,-184.5703125,-0.1502728485967118,-0.2712241657599188,0.23212879051524585,-2236,-456,-525,4154,307,100610
11:53:25.170,19385,-986.328125,167.96875,-169.921875,-0.052534410485029326,-0.2541199390903744,0.2076941809873252,-2236,-453,-546,4154,307,100610
11:53:25.190,19386,-956.0546875,162.109375,-170.8984375,-0.004886921905584123,-0.22602013813326569,0.17592918860102844,-2223,-448,-528,4154,307,100610
11:53:25.210,19387,-954.1015625,164.0625,-180.6640625,0.0024434609527920616,-0.20036379812894903,0.10873401239924674,-2232,-455,-537,4154,307,100610
11:53:25.221,19388,-962.890625,157.2265625,-141.6015625,-0.052534410485029326,-0.1478293876439197,0.06597344572538566,-2233,-454,-538,4154,307,100610
11:53:25.261,19389,-965.8203125,156.25,-107.421875,-0.07574728953655392,-0.0989601685880785,0.024434609527920613,-2229,-455,-540,4154,307,100610
11:53:25.282,19390,-956.0546875,172.8515625,-92.7734375,-0.05009094953223726,-0.0830776723949301,0.0158824961931484,-2230,-451,-543,4154,307,100610
11:53:25.302,19391,-951.171875,185.546875,-97.65625,0.01710422666954443,-0.08552113334772216,0.0012217304763960308,-2231,-453,-542,4154,307,100610
11:53:25.312,19392,-964.84375,171.875,-101.5625,0.03420845333908886,-0.07330382858376185,-0.004886921905584123,-2228,-452,-544,4154,307,100610
11:53:25.333,19393,-969.7265625,165.0390625,-81.0546875,0.01832595714594046,-0.08185594191853407,-0.021991148575128554,-2221,-444,-551,4154,307,100610
11:53:25.353,19394,-970.703125,182.6171875,-69.3359375,0.0,-0.0867428638241182,-0.05009094953223726,-2227,-453,-532,4154,307,100610
11:53:25.373,19395,-972.65625,182.6171875,-74.21875,0.0,-0.09285151620609834,-0.04276056667386108,-2227,-453,-551,4154,307,100610
11:53:25.393,19396,-978.515625,187.5,-73.2421875,0.0012217304763960308,-0.08552113334772216,-0.03665191429188092,-2227,-449,-551,4154,307,100610
11:53:25.403,19397,-963.8671875,192.3828125,-54.6875,0.0024434609527920616,-0.0867428638241182,-0.04398229715025711,-2231,-451,-547,4154,307,100610
11:53:25.424,19398,-961.9140625,173.828125,-55.6640625,-0.07330382858376185,-0.0830776723949301,-0.05497787143782139,-2226,-453,-540,4154,307,100610
11:53:25.444,19399,-959.9609375,197.265625,-57.6171875,-0.11239920382843484,-0.07452555906015788,-0.09040805525330627,-2231,-450,-552,4154,307,100610
11:53:25.464,19400,-961.9140625,213.8671875,-55.6640625,-0.07452555906015788,-0.0635299847725936,-0.11606439525762292,-2228,-450,-553,4154,307,100610
11:53:25.484,19401,-965.8203125,224.609375,-42.96875,-0.021991148575128554,-0.0671951762017817,-0.10506882097005865,-2231,-450,-542,4154,307,100610
11:53:25.495,19402,-964.84375,208.984375,-37.109375,-0.05619960191421742,-0.06475171524898964,-0.07696902001294993,-2232,-452,-550,4154,307,100612
11:53:25.535,19403,-965.8203125,201.171875,-54.6875,-0.16126842288427604,-0.058643062867009474,-0.04153883619746505,-2232,-456,-557,4154,307,100612
11:53:25.556,19404,-972.65625,207.03125,-81.0546875,-0.278554548618295,-0.026878070480712675,-0.003665191429188092,-2228,-461,-563,4154,307,100612
11:53:25.566,19405,-972.65625,201.171875,-80.078125,-0.33964107243809655,-0.004886921905584123,0.006108652381980153,-2226,-455,-551,4154,307,100612
11:53:25.586,19406,-970.703125,200.1953125,-65.4296875,-0.33719761148530447,0.009773843811168246,0.0158824961931484,-2227,-458,-552,4154,307,100612
11:53:25.606,19407,-965.8203125,215.8203125,-61.5234375,-0.2577851305195625,0.009773843811168246,-0.004886921905584123,-2224,-458,-553,4154,307,100612
11:53:25.627,19408,-960.9375,210.9375,-69.3359375,-0.1429424657383356,0.01710422666954443,-0.014660765716752368,-2230,-460,-555,4154,307,100612
11:53:25.647,19409,-963.8671875,222.65625,-61.5234375,-0.020769418098732523,0.01832595714594046,-0.021991148575128554,-2227,-462,-540,4154,307,100612
11:53:25.677,19410,-966.796875,211.9140625,-53.7109375,0.03543018381548489,0.010995574287564277,-0.007330382858376184,-2222,-460,-557,4154,307,100612
11:53:25.697,19411,-956.0546875,204.1015625,-45.8984375,0.03543018381548489,0.010995574287564277,-0.0024434609527920616,-2229,-460,-564,4154,307,100612
11:53:25.718,19412,-961.9140625,190.4296875,-43.9453125,0.03054326190990077,-0.008552113334772215,-0.013439035240356337,-2226,-458,-562,4154,307,100612
11:53:25.738,19413,-974.609375,200.1953125,-44.921875,0.03787364476827696,0.004886921905584123,-0.026878070480712675,-2233,-458,-564,4154,307,100612
11:53:25.748,19414,-967.7734375,201.171875,-41.015625,0.04153883619746505,0.020769418098732523,-0.04153883619746505,-2221,-458,-554,4154,307,100612
11:53:25.768,19415,-957.03125,203.125,-39.0625,0.024434609527920613,0.01832595714594046,-0.0158824961931484,-2226,-461,-553,4154,307,100612
11:53:25.789,19416,-948.2421875,209.9609375,-41.9921875,0.02809980095710871,0.006108652381980153,-0.0024434609527920616,-2228,-459,-560,4154,307,100612
11:53:25.809,19417,-957.03125,206.0546875,-43.9453125,0.03298672286269283,0.006108652381980153,0.007330382858376184,-2227,-458,-556,4154,307,100612
11:53:25.829,19418,-960.9375,202.1484375,-38.0859375,0.04276056667386108,0.008552113334772215,0.0,-2227,-463,-554,4154,307,100612
11:53:25.839,19419,-958.0078125,195.3125,-28.3203125,0.025656340004316647,0.025656340004316647,-0.012217304763960306,-2224,-462,-551,4154,307,100612
11:53:25.859,19420,-957.03125,195.3125,-32.2265625,0.019547687622336492,0.01832595714594046,-0.020769418098732523,-2228,-461,-554,4154,307,100612
11:53:25.880,19421,-958.984375,204.1015625,-40.0390625,0.05742133239061345,0.007330382858376184,-0.025656340004316647,-2208,-453,-551,4154,307,100612
11:53:25.900,19422,-965.8203125,205.078125,-36.1328125,0.07696902001294993,-0.0024434609527920616,-0.026878070480712675,-2224,-465,-567,4154,307,100612
11:53:25.920,19423,-964.84375,194.3359375,-31.25,0.06230825429619757,0.004886921905584123,-0.01710422666954443,-2224,-465,-546,4154,307,100612
11:53:25.951,19424,-960.9375,184.5703125,-38.0859375,0.019547687622336492,0.003665191429188092,-0.006108652381980153,-2226,-459,-553,4154,307,100612
11:53:25.971,19425,-960.9375,185.546875,-41.015625,-0.006108652381980153,0.009773843811168246,-0.01710422666954443,-2225,-461,-550,4154,307,100612
11:53:25.991,19426,-960.9375,194.3359375,-40.0390625,0.0158824961931484,0.009773843811168246,-0.026878070480712675,-2224,-462,-553,4154,307,100612
11:53:26.2,19427,-958.0078125,198.2421875,-34.1796875,0.03298672286269283,0.013439035240356337,-0.02809980095710871,-2225,-462,-547,4154,307,100612
11:53:26.22,19428,-956.0546875,196.2890625,-43.9453125,0.03787364476827696,0.003665191429188092,-0.020769418098732523,-2216,-459,-553,4154,307,100612
11:53:26.42,19429,-957.03125,199.21875,-42.96875,0.01710422666954443,0.006108652381980153,-0.014660765716752368,-2226,-466,-543,4154,307,100612
11:53:26.63,19430,-961.9140625,187.5,-39.0625,-0.008552113334772215,0.013439035240356337,-0.007330382858376184,-2224,-462,-539,4154,307,100612
11:53:26.94,19431,-961.9140625,182.6171875,-37.109375,-0.04398229715025711,0.0158824961931484,-0.009773843811168246,-2212,-454,-542,4154,307,100612
11:53:26.114,19432,-956.0546875,190.4296875,-37.109375,-0.05619960191421742,0.01710422666954443,-0.003665191429188092,-2228,-462,-544,4154,307,100612
11:53:26.134,19433,-959.9609375,202.1484375,-38.0859375,-0.021991148575128554,0.023212879051524585,-0.007330382858376184,-2227,-460,-548,4154,307,100612
11:53:26.155,19434,-963.8671875,193.359375,-35.15625,-0.024434609527920613,0.014660765716752368,0.003665191429188092,-2228,-459,-552,4154,307,100612
11:53:26.175,19435,-969.7265625,182.6171875,-29.296875,-0.05497787143782139,0.003665191429188092,-0.008552113334772215,-2222,-464,-560,4154,307,100612
11:53:26.185,19436,-963.8671875,188.4765625,-25.390625,-0.0830776723949301,0.009773843811168246,-0.029321531433504737,-2225,-461,-559,4154,307,100612
11:53:26.206,19437,-959.9609375,205.078125,-33.203125,-0.0317649923862968,-0.007330382858376184,-0.023212879051524585,-2230,-461,-547,4154,307,100612
11:53:26.226,19438,-958.984375,197.265625,-37.109375,-0.03665191429188092,-0.006108652381980153,-0.020769418098732523,-2215,-456,-554,4154,307,100612
11:53:26.247,19439,-956.0546875,192.3828125,-33.203125,-0.07452555906015788,0.0,-0.013439035240356337,-2225,-464,-546,4154,307,100612
11:53:26.267,19440,-958.0078125,192.3828125,-41.015625,-0.10262536001726659,0.012217304763960306,-0.003665191429188092,-2227,-464,-564,4154,307,100612
11:53:26.277,19441,-953.125,194.3359375,-40.0390625,-0.11239920382843484,0.008552113334772215,-0.009773843811168246,-2228,-465,-554,4154,307,100612
11:53:26.297,19442,-960.9375,199.21875,-42.96875,-0.08552113334772216,0.013439035240356337,-0.012217304763960306,-2222,-466,-550,4154,307,100612
11:53:26.318,19443,-961.9140625,201.171875,-41.015625,-0.06230825429619757,0.004886921905584123,-0.008552113334772215,-2227,-469,-554,4154,307,100612
11:53:26.338,19444,-959.9609375,203.125,-41.9921875,-0.04153883619746505,0.004886921905584123,-0.013439035240356337,-2224,-459,-559,4154,307,100612
11:53:26.368,19445,-959.9609375,198.2421875,-41.015625,-0.06963863715457375,0.003665191429188092,0.0012217304763960308,-2228,-459,-550,4154,307,100612
11:53:26.389,19446,-960.9375,192.3828125,-44.921875,-0.08063421144213802,0.013439035240356337,-0.007330382858376184,-2228,-463,-561,4154,307,100612
11:53:26.409,19447,-968.75,197.265625,-32.2265625,-0.06841690667817772,0.020769418098732523,-0.014660765716752368,-2226,-470,-558,4154,307,100612
11:53:26.429,19448,-970.703125,201.171875,-28.3203125,-0.03665191429188092,0.014660765716752368,-0.010995574287564277,-2228,-467,-556,4154,307,100612
11:53:26.440,19449,-957.03125,196.2890625,-33.203125,-0.04031710572106901,0.006108652381980153,-0.009773843811168246,-2223,-462,-553,4154,307,100612
11:53:26.460,19450,-955.078125,190.4296875,-37.109375,-0.05497787143782139,0.0012217304763960308,-0.0024434609527920616,-2226,-463,-550,4154,307,100612
11:53:26.480,19451,-958.0078125,194.3359375,-32.2265625,-0.05375614096142535,0.003665191429188092,-0.01710422666954443,-2225,-463,-552,4154,307,100612
11:53:26.521,19452,-958.0078125,192.3828125,-33.203125,-0.04276056667386108,0.006108652381980153,-0.004886921905584123,-2232,-462,-544,4154,307,100611
11:53:26.531,19453,-953.125,192.3828125,-36.1328125,-0.04153883619746505,0.0,-0.012217304763960306,-2225,-462,-562,4154,307,100611
11:53:26.551,19454,-962.890625,191.40625,-39.0625,-0.06475171524898964,0.0024434609527920616,-0.01710422666954443,-2223,-463,-551,4154,307,100611
11:53:26.571,19455,-968.75,191.40625,-37.109375,-0.07452555906015788,0.0,-0.013439035240356337,-2226,-464,-543,4154,307,100611
11:53:26.592,19456,-967.7734375,195.3125,-36.1328125,-0.05375614096142535,0.008552113334772215,-0.008552113334772215,-2211,-460,-543,4154,307,100611
11:53:26.602,19457,-964.84375,201.171875,-37.109375,-0.021991148575128554,0.007330382858376184,-0.003665191429188092,-2226,-468,-543,4154,307,100611
11:53:26.622,19458,-965.8203125,196.2890625,-40.0390625,-0.021991148575128554,0.004886921905584123,0.0,-2224,-464,-548,4154,307,100611
11:53:26.663,19459,-963.8671875,191.40625,-41.9921875,-0.05375614096142535,0.012217304763960306,-0.006108652381980153,-2223,-466,-560,4154,307,100611
11:53:26.683,19460,-962.890625,189.453125,-34.1796875,-0.0830776723949301,0.0158824961931484,-0.019547687622336492,-2227,-467,-557,4154,307,100611
11:53:26.693,19461,-958.0078125,199.21875,-31.25,-0.07452555906015788,0.021991148575128554,-0.009773843811168246,-2226,-465,-551,4154,307,100611
11:53:26.713,19462,-966.796875,203.125,-31.25,-0.025656340004316647,0.007330382858376184,-0.0024434609527920616,-2230,-464,-561,4154,307,100611
11:53:26.733,19463,-963.8671875,195.3125,-30.2734375,-0.0158824961931484,0.003665191429188092,-0.004886921905584123,-2220,-456,-552,4154,307,100611
11:53:26.754,19464,-963.8671875,198.2421875,-31.25,-0.01832595714594046,0.009773843811168246,-0.0012217304763960308,-2228,-463,-561,4154,307,100611
11:53:26.774,19465,-966.796875,195.3125,-33.203125,-0.03054326190990077,0.014660765716752368,-0.0024434609527920616,-2230,-463,-559,4154,307,100611
11:53:26.784,19466,-967.7734375,196.2890625,-28.3203125,-0.04520402762665313,0.019547687622336492,0.008552113334772215,-2215,-458,-553,4154,307,100611
11:53:26.804,19467,-966.796875,201.171875,-33.203125,-0.0317649923862968,0.007330382858376184,0.0,-2223,-464,-548,4154,307,100611
11:53:26.825,19468,-969.7265625,194.3359375,-39.0625,0.0012217304763960308,0.008552113334772215,-0.0012217304763960308,-2226,-460,-558,4154,307,100611
11:53:26.845,19469,-968.75,196.2890625,-44.921875,0.0158824961931484,0.004886921905584123,-0.0024434609527920616,-2221,-458,-560,4154,307,100611
11:53:26.865,19470,-962.890625,198.2421875,-42.96875,0.010995574287564277,0.014660765716752368,-0.013439035240356337,-2210,-455,-547,4154,307,100611
11:53:26.876,19471,-956.0546875,198.2421875,-39.0625,0.009773843811168246,0.019547687622336492,-0.008552113334772215,-2228,-463,-556,4154,307,100611
11:53:26.896,19472,-955.078125,196.2890625,-36.1328125,0.0158824961931484,0.020769418098732523,0.003665191429188092,-2223,-460,-563,4154,307,100611
11:53:26.936,19473,-957.03125,196.2890625,-36.1328125,0.03420845333908886,0.009773843811168246,0.004886921905584123,-2228,-457,-552,4154,307,100611
11:53:26.946,19474,-965.8203125,189.453125,-29.296875,0.05375614096142535,0.014660765716752368,0.0012217304763960308,-2226,-461,-557,4154,307,100611
11:53:27.8,19475,-963.8671875,196.2890625,-24.4140625,0.04520402762665313,0.01710422666954443,-0.0024434609527920616,-2221,-461,-554,4154,307,100611
11:53:27.28,19476,-958.984375,201.171875,-25.390625,0.04153883619746505,0.010995574287564277,-0.0158824961931484,-2225,-459,-561,4154,307,100611
11:53:27.39,19477,-955.078125,200.1953125,-35.15625,0.05009094953223726,0.003665191429188092,0.0024434609527920616,-2217,-459,-556,4154,307,100611
11:53:27.59,19478,-957.03125,192.3828125,-34.1796875,0.07941248096574201,-0.0024434609527920616,0.003665191429188092,-2229,-465,-563,4154,307,100611
11:53:27.79,19479,-964.84375,187.5,-31.25,0.048869219055841226,0.012217304763960306,0.0,-2227,-464,-545,4154,307,100611
11:53:27.100,19480,-959.9609375,197.265625,-32.2265625,0.0158824961931484,0.024434609527920613,0.0,-2224,-464,-558,4154,307,100611
11:53:27.120,19481,-956.0546875,212.890625,-41.015625,0.04642575810304917,0.021991148575128554,0.0012217304763960308,-2226,-461,-558,4154,307,100611
11:53:27.130,19482,-958.984375,218.75,-47.8515625,0.10506882097005865,0.01710422666954443,0.023212879051524585,-2226,-461,-555,4154,307,100611
11:53:27.150,19483,-965.8203125,220.703125,-56.640625,0.14905111812031577,0.0158824961931484,0.05497787143782139,-2228,-463,-551,4154,307,100611
11:53:27.171,19484,-969.7265625,228.515625,-60.546875,0.15393804002589986,0.012217304763960306,0.09285151620609834,-2220,-457,-538,4154,307,100611
11:53:27.191,19485,-975.5859375,232.421875,-57.6171875,0.1356120828799594,0.025656340004316647,0.1270599695451872,-2224,-459,-556,4154,307,100611
11:53:27.211,19486,-974.609375,245.1171875,-63.4765625,0.09651670763528641,0.029321531433504737,0.18448130193580062,-2225,-459,-546,4154,307,100611
11:53:27.222,19487,-979.4921875,264.6484375,-61.5234375,0.05619960191421742,0.06475171524898964,0.22846359908605776,-2225,-457,-549,4154,307,100611
11:53:27.242,19488,-980.46875,316.40625,-51.7578125,0.052534410485029326,0.09285151620609834,0.26389378290154264,-2224,-456,-558,4154,307,100611
11:53:27.262,19489,-980.46875,392.578125,-65.4296875,0.1551597705022959,0.1270599695451872,0.31154127148098787,-2224,-453,-540,4154,307,100611
11:53:27.282,19490,-972.65625,407.2265625,-95.703125,0.2932153143350474,0.16004669240788005,0.36163222101322506,-2226,-448,-538,4154,307,100611
11:53:27.292,19491,-990.234375,379.8828125,-109.375,0.5033529562751646,0.18081611050661253,0.4068362486398782,-2221,-446,-543,4154,307,100611
11:53:27.313,19492,-1000.9765625,344.7265625,-131.8359375,0.6695083010650249,0.2235766771804736,0.475253155318056,-2224,-443,-533,4154,307,100611
11:53:27.333,19493,-992.1875,356.4453125,-133.7890625,0.6927211801165495,0.26022859147235455,0.6133086991508074,-2220,-432,-529,4154,307,100611
11:53:27.353,19494,-1001.953125,412.109375,-127.9296875,0.6035348553396392,0.30543261909900765,0.7770205829878756,-2217,-426,-541,4154,307,100611
11:53:27.374,19495,-1026.3671875,540.0390625,-131.8359375,0.6426302305843121,0.4166100924510465,1.0482447487477944,-2205,-414,-535,4154,307,100611
11:53:27.384,19496,-1047.8515625,605.46875,-156.25,1.0482447487477944,0.4654793115068877,1.2205087459196347,-2226,-412,-531,4154,307,100611
11:53:27.404,19497,-1054.6875,603.515625,-194.3359375,1.4856242592975735,0.5302310267558774,1.4343115792889403,-2228,-387,-517,4154,307,100611
11:53:27.425,19498,-1059.5703125,629.8828125,-208.984375,1.6762142136153542,0.5742133239061344,1.6713272917097701,-2208,-375,-518,4154,307,100611
11:53:27.445,19499,-1084.9609375,752.9296875,-228.515625,1.7666222688686608,0.6377433086787281,1.8961256993666398,-2220,-362,-509,4154,307,100611
11:53:27.466,19500,-1116.2109375,879.8828125,-263.671875,1.9950858679547183,0.7574728953655392,2.138028333693054,-2216,-336,-503,4154,307,100611
11:53:27.496,19501,-1150.390625,887.6953125,-313.4765625,2.425134995646121,0.8539896030008255,2.3762657765902797,-2209,-323,-485,4154,307,100611
11:53:27.517,19502,-1180.6640625,876.953125,-333.984375,2.820975669998435,0.9822713030224087,2.671924551878119,-2204,-299,-478,4160,307,100612
11:53:27.537,19503,-1137.6953125,891.6015625,-342.7734375,3.249803067213442,1.2644910430698917,3.202155578633997,-2192,-265,-454,4160,307,100612
11:53:27.547,19504,-1071.2890625,954.1015625,-384.765625,3.5381314596429054,1.4477506145292964,3.49659262344544,-2183,-248,-439,4160,307,100612
11:53:27.568,19505,-1044.921875,1000.0,-495.1171875,3.9449677082827836,1.6029103850315922,3.704286804432765,-2148,-215,-412,4160,307,100612
11:53:27.588,19506,-1005.859375,958.0078125,-659.1796875,4.38601241026175,1.7886134174437889,3.8802159930337936,-2134,-198,-360,4160,307,100612
11:53:27.609,19507,-981.4453125,963.8671875,-737.3046875,4.695110220789947,2.0182987470062432,4.057366912111219,-2122,-186,-343,4160,307,100612
11:53:27.639,19508,-885.7421875,911.1328125,-756.8359375,4.707327525553907,2.3310617489636263,4.164879194034069,-2080,-163,-300,4160,307,100612
11:53:27.660,19509,-755.859375,802.734375,-780.2734375,4.440990281699571,2.630385715680654,4.18931380356199,-2043,-156,-254,4160,307,100612
11:53:27.680,19510,-625.0,647.4609375,-886.71875,4.03537576353609,2.8722883500070684,4.2381830226178305,-2018,-153,-234,4160,307,100612
11:53:27.700,19511,-495.1171875,632.8125,-932.6171875,3.3524284272307083,3.0921998357583536,4.289495702626463,-1968,-156,-186,4160,307,100612
11:53:27.721,19512,-394.53125,639.6484375,-922.8515625,3.1117475233806906,3.167947125294908,4.257730710240167,-1914,-153,-160,4160,307,100612
11:53:27.731,19513,-270.5078125,518.5546875,-798.828125,2.974913710024335,3.189938273870036,4.177096498798029,-1895,-156,-149,4160,307,100612
11:53:27.751,19514,-151.3671875,395.5078125,-712.890625,2.7928758690413265,3.134960402432215,4.102570939737872,-1840,-169,-123,4160,307,100612
11:53:27.772,19515,-47.8515625,330.078125,-702.1484375,2.572964383290041,2.99812658907586,4.014606345437357,-1790,-183,-114,4160,307,100612
11:53:27.792,19516,83.984375,275.390625,-692.3828125,2.4459044137448536,2.8026497128524945,3.8875463758921693,-1767,-189,-105,4160,307,100612
11:53:27.802,19517,166.9921875,253.90625,-673.828125,2.502104015659071,2.5460863128093285,3.6468654720421516,-1724,-207,-81,4160,307,100612
11:53:27.823,19518,212.890625,178.7109375,-600.5859375,2.6914722395004556,2.327396557534439,3.358537079612688,-1686,-238,-84,4160,307,100612
11:53:27.843,19519,240.234375,123.046875,-551.7578125,2.698802622358832,2.0989329584483807,3.0579913824192646,-1666,-246,-62,4160,307,100612
11:53:27.864,19520,298.828125,41.9921875,-520.5078125,2.389704811830636,1.7666222688686608,2.571742652813645,-1639,-277,-61,4160,307,100612
11:53:27.885,19521,375.9765625,-11.71875,-516.6015625,2.095267767019193,1.4966198335851377,2.257757920379865,-1623,-304,-63,4160,307,100612
11:53:27.915,19522,366.2109375,-18.5546875,-567.3828125,1.8496999412635906,1.2131783630612585,1.9755381803323817,-1596,-327,-61,4160,307,100612
11:53:27.935,19523,321.2890625,-0.9765625,-605.46875,1.6847663269501267,0.9663888068292604,1.7837264955382048,-1597,-341,-63,4160,307,100612
11:53:27.956,19524,313.4765625,-45.8984375,-577.1484375,1.5320500174006226,0.7867944267990439,1.6053538459843844,-1583,-360,-67,4160,307,100612
11:53:27.966,19525,366.2109375,-150.390625,-517.578125,1.336573141177258,0.6218608124855797,1.4135421611902077,-1575,-381,-67,4160,307,100612
11:53:27.986,19526,378.90625,-239.2578125,-527.34375,1.147204917335873,0.48747046008201633,1.145983186859477,-1570,-380,-61,4160,307,100612
11:53:28.7,19527,335.9375,-231.4453125,-612.3046875,0.9712757287348445,0.3384193419617005,0.8356636458548851,-1571,-401,-61,4160,307,100612
11:53:28.27,19528,340.8203125,-233.3984375,-664.0625,0.8246680715673209,0.08796459430051422,0.4789183467472441,-1571,-412,-69,4160,307,100612
11:53:28.58,19529,328.125,-266.6015625,-637.6953125,0.6633996486830448,-0.09407324668249437,0.3286454981505323,-1565,-418,-62,4160,307,100612
11:53:28.78,19530,332.03125,-301.7578125,-614.2578125,0.4202752838802346,-0.2345722514680379,0.2028072590817411,-1568,-423,-62,4160,307,100612
11:53:28.98,19531,328.125,-301.7578125,-632.8125,0.32375857624494814,-0.3457497248200767,0.06108652381980154,-1576,-427,-58,4160,307,100612
11:53:28.119,19532,347.65625,-306.640625,-667.96875,0.40194932673429407,-0.4691445029360758,-0.1392772743091475,-1581,-426,-65,4160,307,100612
11:53:28.129,19533,381.8359375,-346.6796875,-728.515625,0.4703662334124718,-0.6072000467688273,-0.32498030672134415,-1566,-424,-52,4160,307,100612
11:53:28.149,19534,352.5390625,-390.625,-742.1875,0.4202752838802346,-0.755029434412747,-0.4813618077000361,-1591,-431,-51,4160,307,100612
11:53:28.170,19535,310.546875,-382.8125,-732.421875,0.20525072003453318,-0.8405505677604692,-0.5876523591464908,-1591,-430,-54,4160,307,100612
11:53:28.261,19536,326.171875,-346.6796875,-756.8359375,-0.1111774733520388,-0.9627236154000722,-0.7415903991723907,-1600,-434,-48,4160,307,100612
11:53:28.281,19537,267.578125,-284.1796875,-821.2890625,-0.019547687622336492,-0.995710338262765,-0.8478809506188453,-1615,-426,-48,4160,307,100612
11:53:28.302,19538,250.0,-277.34375,-868.1640625,0.17226399717184035,-1.0079276430267254,-0.9370672753957556,-1621,-423,-41,4160,307,100612
11:53:28.312,19539,246.09375,-323.2421875,-871.09375,0.24434609527920617,-1.0506882097005865,-1.0091493735031216,-1629,-425,-38,4160,307,100612
11:53:28.332,19540,236.328125,-375.9765625,-844.7265625,0.1356120828799594,-1.0983356982800316,-1.0470230182713984,-1635,-422,-36,4160,307,100612
11:53:28.352,19541,200.1953125,-374.0234375,-848.6328125,-0.05619960191421742,-1.1301006906663282,-1.0946705068508435,-1647,-424,-31,4160,307,100612
11:53:28.373,19542,140.625,-292.96875,-888.671875,-0.1820378409830086,-1.1386528040011008,-1.154535300194249,-1660,-423,-30,4160,307,100612
11:53:28.393,19543,89.84375,-229.4921875,-930.6640625,-0.15882496193148402,-1.1374310735247046,-1.1789699097221698,-1671,-417,-34,4160,307,100612
11:53:28.403,19544,58.59375,-201.171875,-976.5625,-0.07819075048934597,-1.1386528040011008,-1.1007791592328238,-1673,-419,-34,4160,307,100612
11:53:28.424,19545,20.5078125,-214.84375,-978.515625,-0.0952949771588904,-1.0555751316061706,-0.9468411192069238,-1685,-420,-28,4160,307,100612
11:53:28.444,19546,-5.859375,-237.3046875,-935.546875,-0.1893682238413848,-0.950506310636112,-0.8588765249064098,-1701,-415,-25,4160,307,100612
11:53:28.464,19547,-53.7109375,-172.8515625,-955.078125,-0.1734857276482364,-0.8124507668033605,-0.7476990515543708,-1700,-408,-22,4160,307,100612
11:53:28.474,19548,-109.375,-109.375,-1039.0625,0.02809980095710871,-0.63407811724954,-0.5913175505756788,-1716,-408,-25,4160,307,100612
11:53:28.495,19549,-162.109375,-119.140625,-1074.21875,0.18325957145940464,-0.41172317054546237,-0.40317105721069013,-1722,-406,-24,4160,307,100612
11:53:28.515,19550,-184.5703125,-151.3671875,-1047.8515625,0.15271630954950383,-0.1734857276482364,-0.2028072590817411,-1721,-411,-25,4160,307,100612
11:53:28.535,19551,-205.078125,-177.734375,-1015.625,0.04520402762665313,0.08185594191853407,0.004886921905584123,-1723,-410,-23,4160,307,100612
11:53:28.556,19552,-218.75,-171.875,-995.1171875,-0.03665191429188092,0.33475415053251245,0.2724458962363148,-1722,-413,-26,4160,307,100601
11:53:28.566,19553,-208.984375,-163.0859375,-997.0703125,0.1038470904936626,0.676838683923401,0.6230825429619757,-1720,-416,-26,4160,307,100601
11:53:28.586,19554,-207.03125,-157.2265625,-1017.578125,0.3628539514896212,0.874759021099558,0.7660250087003113,-1698,-414,-14,4160,307,100601
11:53:28.607,19555,-215.8203125,-208.984375,-997.0703125,0.519235452468313,1.0763445497049031,0.8539896030008255,-1700,-419,-24,4160,307,100601
11:53:28.627,19556,-201.171875,-268.5546875,-958.984375,0.3738495257771854,1.2669345040226838,0.9321803534901714,-1687,-427,-20,4160,307,100601
11:53:28.648,19557,-153.3203125,-289.0625,-939.453125,0.15393804002589986,1.3927727430914751,0.9712757287348445,-1677,-428,-29,4160,307,100601
11:53:28.658,19558,-114.2578125,-282.2265625,-932.6171875,0.026878070480712675,1.4697417631044252,1.0348057135074382,-1662,-432,-29,4160,307,100601
11:53:28.679,19559,-36.1328125,-267.578125,-907.2265625,0.04520402762665313,1.5149457907310784,1.0812314716104872,-1629,-427,-32,4160,307,100601
11:53:28.699,19560,57.6171875,-279.296875,-860.3515625,0.05497787143782139,1.5381586697826028,1.0067059125503293,-1638,-435,-37,4160,307,100601
11:53:28.720,19561,140.625,-322.265625,-814.453125,-0.006108652381980153,1.5173892516838703,0.7745771220350836,-1614,-438,-33,4160,307,100601
11:53:28.730,19562,281.25,-336.9140625,-755.859375,-0.07452555906015788,1.4245377354777717,0.6572909963010646,-1606,-441,-46,4160,307,100601
11:53:28.750,19563,527.34375,-354.4921875,-777.34375,-0.1038470904936626,1.2730431564046643,0.5778785153353226,-1602,-439,-51,4160,307,100601
11:53:28.771,19564,687.5,-372.0703125,-801.7578125,-0.16493361431346415,1.1056660811384078,0.4923573819876005,-1584,-442,-53,4160,307,100601
11:53:28.791,19565,754.8828125,-404.296875,-769.53125,-0.31154127148098787,0.9260717011081913,0.33719761148530447,-1577,-439,-60,4160,307,100601
11:53:28.811,19566,871.09375,-423.828125,-724.609375,-0.37140606482439337,0.7501425125071629,0.1954768762233649,-1574,-438,-67,4160,307,100601
11:53:28.822,19567,962.890625,-431.640625,-703.125,-0.29810223624063154,0.5717698629533424,0.10873401239924674,-1569,-432,-60,4160,307,100601
11:53:28.842,19568,940.4296875,-395.5078125,-718.75,-0.16371188383706814,0.4398229715025711,0.014660765716752368,-1549,-423,-72,4160,307,100601
11:53:28.863,19569,868.1640625,-395.5078125,-724.609375,-0.08063421144213802,0.3286454981505323,-0.09407324668249437,-1562,-431,-70,4160,307,100601
11:53:28.883,19570,808.59375,-374.0234375,-729.4921875,-0.008552113334772215,0.18325957145940464,-0.12095131716320705,-1559,-426,-69,4160,307,100601
11:53:28.903,19571,791.9921875,-339.84375,-759.765625,0.0635299847725936,0.08063421144213802,-0.1233947781159991,-1547,-420,-62,4160,307,100601
11:53:28.914,19572,751.953125,-328.125,-784.1796875,0.12950343049797927,-0.006108652381980153,-0.09773843811168245,-1558,-424,-65,4160,307,100601
11:53:28.934,19573,683.59375,-342.7734375,-805.6640625,0.11728612573401895,-0.058643062867009474,-0.06230825429619757,-1562,-425,-72,4160,307,100601
11:53:28.954,19574,621.09375,-334.9609375,-833.0078125,0.08796459430051422,-0.05497787143782139,-0.04398229715025711,-1566,-429,-71,4160,307,100601
11:53:28.975,19575,583.0078125,-316.40625,-847.65625,0.09040805525330627,-0.051312680008633295,-0.01832595714594046,-1550,-425,-78,4160,307,100601
11:53:28.985,19576,525.390625,-294.921875,-869.140625,0.09285151620609834,0.003665191429188092,-0.010995574287564277,-1558,-432,-65,4160,307,100601
11:53:29.5,19577,484.375,-295.8984375,-916.015625,0.15393804002589986,0.048869219055841226,-0.0024434609527920616,-1559,-432,-73,4160,307,100601
11:53:29.26,19578,448.2421875,-304.6875,-926.7578125,0.24068090385001806,0.12461650859239513,-0.020769418098732523,-1562,-435,-79,4160,307,100601
11:53:29.46,19579,415.0390625,-351.5625,-918.9453125,0.25656340004316647,0.17959438003021652,-0.05009094953223726,-1557,-432,-72,4160,307,100601
11:53:29.67,19580,376.953125,-388.671875,-900.390625,0.2101376419401173,0.2345722514680379,-0.08552113334772216,-1554,-439,-68,4160,307,100601
11:53:29.77,19581,359.375,-405.2734375,-904.296875,0.18814649336498873,0.2846632010002752,-0.10629055144645469,-1551,-440,-72,4160,307,100601
11:53:29.97,19582,366.2109375,-419.921875,-916.015625,0.24801128670839426,0.33719761148530447,-0.16982053621904827,-1550,-437,-71,4160,307,100601
11:53:29.118,19583,365.234375,-424.8046875,-905.2734375,0.35552356863124496,0.39828413530510604,-0.2614503219487506,-1550,-443,-74,4160,307,100601
11:53:29.138,19584,373.046875,-468.75,-859.375,0.44837508483734323,0.4459316238845512,-0.38362336958835364,-1546,-444,-74,4160,307,100601
11:53:29.169,19585,388.671875,-495.1171875,-851.5625,0.4825835381764321,0.4679227724596798,-0.5119050696099369,-1546,-443,-64,4160,307,100601
11:53:29.189,19586,417.96875,-494.140625,-834.9609375,0.46670104198328377,0.48869219055841234,-0.6890559886873614,-1535,-442,-80,4160,307,100601
11:53:29.209,19587,448.2421875,-500.0,-792.96875,0.44959681531373935,0.477696616270848,-0.8087855753741724,-1537,-443,-82,4160,307,100601
11:53:29.229,19588,498.046875,-484.375,-754.8828125,0.4459316238845512,0.4544837372193235,-0.9065240134858548,-1536,-444,-86,4160,307,100601
11:53:29.239,19589,540.0390625,-463.8671875,-727.5390625,0.4398229715025711,0.4214970143566306,-0.9822713030224087,-1522,-439,-91,4160,307,100601
11:53:29.260,19590,617.1875,-434.5703125,-658.203125,0.43493604959698695,0.35185837720205687,-1.0910053154216555,-1528,-441,-84,4160,307,100601
11:53:29.280,19591,690.4296875,-407.2265625,-599.609375,0.45204027626653137,0.2700024352835228,-1.18507856210415,-1525,-432,-93,4160,307,100601
11:53:29.321,19592,737.3046875,-366.2109375,-580.078125,0.5363396791378575,0.15393804002589986,-1.227839128778011,-1522,-434,-92,4160,307,100601
11:53:29.331,19593,815.4296875,-359.375,-560.546875,0.5839871677173026,0.020769418098732523,-1.2705996954518721,-1526,-434,-93,4160,307,100601
11:53:29.351,19594,867.1875,-361.328125,-519.53125,0.44959681531373935,-0.1893682238413848,-1.2999212268853766,-1523,-432,-99,4160,307,100601
11:53:29.372,19595,875.0,-348.6328125,-524.4140625,0.3457497248200767,-0.32131511529215606,-1.3072516097437528,-1524,-427,-94,4160,307,100601
11:53:29.392,19596,879.8828125,-290.0390625,-561.5234375,0.3005456971934236,-0.4312708581677988,-1.3231341059369013,-1519,-419,-82,4160,307,100601
11:53:29.412,19597,887.6953125,-276.3671875,-568.359375,0.2651155133779387,-0.5216789134211052,-1.3329079497480694,-1534,-419,-85,4160,307,100601
11:53:29.422,19598,911.1328125,-300.78125,-558.59375,0.15882496193148402,-0.5986479334340551,-1.3329079497480694,-1533,-417,-78,4160,307,100601
11:53:29.463,19599,916.015625,-298.828125,-589.84375,0.007330382858376184,-0.678060414399797,-1.303586418314565,-1531,-409,-80,4160,307,100601
11:53:29.483,19600,890.625,-216.796875,-676.7578125,-0.026878070480712675,-0.7208209810736581,-1.2486085468767434,-1545,-409,-75,4160,307,100601
11:53:29.503,19601,886.71875,-179.6875,-736.328125,0.10873401239924674,-0.7428121296487867,-1.1972958668681102,-1559,-404,-72,4160,307,100601
11:53:29.514,19602,880.859375,-208.984375,-727.5390625,0.17470745812463243,-0.7855726963226478,-1.1716395268637936,-1569,-400,-64,4154,307,100605
11:53:29.534,19603,833.0078125,-259.765625,-708.984375,-0.03054326190990077,-0.8258898020437169,-1.1985175973445061,-1550,-387,-58,4154,307,100605
11:53:29.554,19604,754.8828125,-225.5859375,-720.703125,-0.11728612573401895,-0.8759807515759541,-1.2009610582972983,-1573,-389,-60,4154,307,100605
11:53:29.575,19605,680.6640625,-127.9296875,-771.484375,-0.04153883619746505,-0.9260717011081913,-1.189965484009734,-1588,-383,-55,4154,307,100605
11:53:29.585,19606,617.1875,-60.546875,-817.3828125,0.11239920382843484,-0.9773843811168247,-1.154535300194249,-1591,-382,-60,4154,307,100605
11:53:29.605,19607,577.1484375,-73.2421875,-803.7109375,0.16126842288427604,-1.0177014868378935,-1.1337658820955165,-1606,-377,-62,4154,307,100605
11:53:29.626,19608,538.0859375,-120.1171875,-770.5078125,0.09040805525330627,-1.0616837839881508,-1.1801916401985657,-1621,-377,-39,4154,307,100605
11:53:29.646,19609,466.796875,-156.25,-778.3203125,0.004886921905584123,-1.1178833859023682,-1.2363912421127832,-1625,-374,-42,4154,307,100605
11:53:29.667,19610,382.8125,-109.375,-816.40625,-0.12461650859239513,-1.1093312725675961,-1.2644910430698917,-1628,-362,-44,4154,307,100605
11:53:29.677,19611,366.2109375,-3.90625,-916.9921875,-0.2687807048071268,-1.0494664792241903,-1.1936306754389219,-1653,-361,-41,4154,307,100605
11:53:29.697,19612,363.28125,40.0390625,-982.421875,-0.24801128670839426,-0.9859364944515968,-1.1288789601899325,-1659,-360,-30,4154,307,100605
11:53:29.738,19613,382.8125,44.921875,-978.515625,-0.17592918860102844,-0.8894197868163104,-1.147204917335873,-1671,-354,-29,4154,307,100605
11:53:29.758,19614,361.328125,-0.9765625,-945.3125,-0.14172073526193957,-0.8185594191853407,-1.1985175973445061,-1684,-350,-26,4154,307,100605
11:53:29.768,19615,291.015625,-55.6640625,-916.9921875,-0.2419026343264141,-0.7770205829878756,-1.1936306754389219,-1688,-345,-35,4154,307,100605
11:53:29.789,19616,167.96875,6.8359375,-936.5234375,-0.41905355340383854,-0.7440338601251827,-1.1191051163787642,-1700,-341,-33,4154,307,100605
11:53:29.880,19617,41.015625,132.8125,-967.7734375,-0.4532620067429274,-0.6621779182066487,-0.9224065096790033,-1701,-335,-26,4154,307,100605
11:53:29.900,19618,-51.7578125,211.9140625,-1020.5078125,-0.2223549467040776,-0.5119050696099369,-0.6853907972581733,-1708,-335,-35,4154,307,100605
11:53:29.921,19619,-151.3671875,189.453125,-1073.2421875,0.019547687622336492,-0.11606439525762292,-0.24801128670839426,-1717,-334,-24,4154,307,100605
11:53:29.931,19620,-216.796875,162.109375,-1042.96875,-0.06841690667817772,0.23212879051524585,0.06963863715457375,-1717,-334,-30,4154,307,100605
11:53:29.951,19621,-196.2890625,130.859375,-951.171875,-0.28099800957108706,0.5424483315198376,0.36163222101322506,-1713,-329,-37,4154,307,100605
11:53:29.971,19622,-107.421875,129.8828125,-897.4609375,-0.2700024352835228,0.7464773210779747,0.6438519610607082,-1708,-335,-27,4154,307,100605
11:53:29.992,19623,-17.578125,146.484375,-915.0390625,0.007330382858376184,0.8674286382411819,0.8784242125287461,-1691,-326,-28,4154,307,100605
11:53:30.12,19624,37.109375,117.1875,-931.640625,0.3127630019573839,0.9590584239708841,1.0274753306490618,-1674,-332,-38,4154,307,100605
11:53:30.22,19625,92.7734375,28.3203125,-916.015625,0.3274237676741363,1.0323622525546459,1.0836749325632793,-1677,-339,-44,4154,307,100605
11:53:30.42,19626,187.5,-43.9453125,-881.8359375,0.07330382858376185,1.1044443506620119,1.072679358275715,-1665,-344,-35,4154,307,100605
11:53:30.63,19627,302.734375,-54.6875,-867.1875,-0.1661553447898602,1.1288789601899325,1.0592403230353586,-1651,-337,-39,4154,307,100605
11:53:30.83,19628,398.4375,-0.9765625,-901.3671875,-0.15271630954950383,1.1276572297135363,1.0567968620825665,-1650,-343,-45,4154,307,100605
11:53:30.93,19629,447.265625,10.7421875,-924.8046875,-0.0830776723949301,1.1227703078079523,1.0470230182713984,-1633,-348,-54,4154,307,100605
11:53:30.114,19630,543.9453125,-15.625,-917.96875,-0.0671951762017817,1.1398745344774965,1.0580185925589627,-1616,-347,-56,4154,307,100605
11:53:30.134,19631,665.0390625,-15.625,-887.6953125,-0.04398229715025711,1.0971139678036357,1.0616837839881508,-1602,-347,-43,4154,307,100605
11:53:30.154,19632,757.8125,-89.84375,-814.453125,-0.12217304763960309,1.038470904936626,1.0885618544688633,-1597,-348,-54,4154,307,100605
11:53:30.175,19633,878.90625,-195.3125,-749.0234375,-0.29932396671702755,0.955393232541696,1.0897835849452593,-1583,-354,-59,4154,307,100605
11:53:30.185,19634,977.5390625,-231.4453125,-717.7734375,-0.43860124102617504,0.834441915378489,1.0360274439838342,-1579,-357,-67,4154,307,100605
11:53:30.205,19635,1016.6015625,-259.765625,-702.1484375,-0.4166100924510465,0.6817256058289851,0.9712757287348445,-1574,-355,-69,4154,307,100605
11:53:30.225,19636,1003.90625,-293.9453125,-715.8203125,-0.1551597705022959,0.4447098934081552,0.7574728953655392,-1569,-360,-89,4154,307,100605
11:53:30.246,19637,972.65625,-355.46875,-706.0546875,-0.0671951762017817,0.3029891581462157,0.5827654372409066,-1564,-357,-79,4154,307,100605
11:53:30.266,19638,921.875,-386.71875,-694.3359375,-0.08796459430051422,0.2028072590817411,0.39217548292312593,-1544,-357,-83,4154,307,100605
11:53:30.276,19639,842.7734375,-371.09375,-715.8203125,-0.12828170002158323,0.12583823906879116,0.2138028333693054,-1559,-358,-77,4154,307,100605
11:53:30.296,19640,772.4609375,-304.6875,-743.1640625,-0.10873401239924674,0.06597344572538566,0.08429940287132612,-1558,-362,-75,4154,307,100605
11:53:30.317,19641,726.5625,-250.9765625,-771.484375,-0.0671951762017817,0.013439035240356337,0.006108652381980153,-1553,-361,-62,4154,307,100605
11:53:30.337,19642,691.40625,-205.078125,-769.53125,-0.0317649923862968,-0.02809980095710871,-0.025656340004316647,-1553,-362,-84,4154,307,100605
11:53:30.358,19643,661.1328125,-168.9453125,-776.3671875,-0.01832595714594046,-0.05009094953223726,-0.039095375244672985,-1554,-356,-73,4154,307,100605
11:53:30.368,19644,641.6015625,-124.0234375,-794.921875,0.04031710572106901,-0.05986479334340551,-0.020769418098732523,-1558,-360,-74,4154,307,100605
11:53:30.389,19645,625.0,-89.84375,-803.7109375,0.10018189906447451,-0.06108652381980154,-0.008552113334772215,-1548,-356,-72,4154,307,100605
11:53:30.409,19646,621.09375,-84.9609375,-810.546875,0.11850785621041499,-0.03420845333908886,0.010995574287564277,-1554,-360,-67,4154,307,100605
11:53:30.430,19647,610.3515625,-76.171875,-815.4296875,0.10140362954087055,-0.01832595714594046,0.039095375244672985,-1562,-364,-89,4154,307,100605
11:53:30.440,19648,601.5625,-64.453125,-807.6171875,0.06597344572538566,0.009773843811168246,0.08552113334772216,-1551,-364,-71,4154,307,100605
11:53:30.460,19649,596.6796875,-39.0625,-819.3359375,0.07941248096574201,0.05619960191421742,0.14049900478554353,-1557,-364,-73,4154,307,100605
11:53:30.481,19650,610.3515625,-35.15625,-823.2421875,0.0989601685880785,0.09285151620609834,0.20402898955813717,-1564,-365,-75,4154,307,100605
11:53:30.501,19651,622.0703125,-40.0390625,-818.359375,0.08552113334772216,0.12583823906879116,0.2858849314766712,-1560,-364,-78,4154,307,100605
11:53:30.521,19652,637.6953125,-8.7890625,-840.8203125,0.08796459430051422,0.19303341527057283,0.4471533543609472,-1549,-364,-85,4154,307,100605
11:53:30.531,19653,651.3671875,19.53125,-897.4609375,0.1466076571675237,0.32498030672134415,0.5888740896228868,-1558,-371,-69,4154,307,100605
11:53:30.552,19654,669.921875,44.921875,-926.7578125,0.1869247628885927,0.43860124102617504,0.7672467391767073,-1552,-375,-76,4154,307,100605
11:53:30.572,19655,730.46875,-0.0,-887.6953125,0.14905111812031577,0.5497787143782138,0.9663888068292604,-1540,-375,-81,4154,307,100605
11:53:30.592,19656,820.3125,-93.75,-843.75,0.03054326190990077,0.6206390820091836,1.1484266478122689,-1540,-382,-80,4154,307,100605
11:53:30.612,19657,875.9765625,-147.4609375,-843.75,-0.09773843811168245,0.6988298324985297,1.2815952697394362,-1531,-388,-90,4154,307,100605
11:53:30.623,19658,924.8046875,-182.6171875,-845.703125,-0.11239920382843484,0.753807703936351,1.3720033249927428,-1528,-399,-82,4154,307,100605
11:53:30.643,19659,960.9375,-245.1171875,-823.2421875,-0.05619960191421742,0.8063421144213803,1.4367550402417322,-1520,-397,-87,4154,307,100605
11:53:30.663,19660,981.4453125,-312.5,-778.3203125,-0.006108652381980153,0.8246680715673209,1.4917329116795537,-1516,-409,-96,4154,307,100605
11:53:30.714,19661,968.75,-361.328125,-731.4453125,0.07330382858376185,0.8075638448977764,1.4575244583404645,-1503,-423,-94,4154,307,100605
11:53:30.734,19662,953.125,-423.828125,-647.4609375,0.14049900478554353,0.7391469382195985,1.3646729421343664,-1505,-425,-107,4154,307,100605
11:53:30.754,19663,953.125,-509.765625,-554.6875,0.1869247628885927,0.6328563867731439,1.2241739373488227,-1494,-431,-113,4154,307,100605
11:53:30.775,19664,927.734375,-537.109375,-528.3203125,0.1954768762233649,0.49846603436958054,1.0360274439838342,-1498,-444,-114,4154,307,100605
11:53:30.785,19665,893.5546875,-539.0625,-499.0234375,0.16004669240788005,0.3103195410045918,0.8222246106145287,-1493,-447,-109,4154,307,100605
11:53:30.805,19666,863.28125,-529.296875,-477.5390625,0.13194689145077132,0.0830776723949301,0.6059783162924314,-1475,-449,-111,4154,307,100605
11:53:30.825,19667,831.0546875,-526.3671875,-450.1953125,0.0989601685880785,-0.14049900478554353,0.3775147172063735,-1487,-452,-117,4154,307,100605
11:53:30.846,19668,793.9453125,-527.34375,-401.3671875,0.09773843811168245,-0.37507125625358145,0.1710422666954443,-1493,-458,-109,4154,307,100605
11:53:30.866,19669,764.6484375,-533.203125,-374.0234375,0.04642575810304917,-0.6853907972581733,-0.12095131716320705,-1495,-456,-110,4154,307,100605
11:53:30.876,19670,738.28125,-516.6015625,-373.046875,0.03787364476827696,-0.8845328649107264,-0.2944370448114434,-1502,-458,-112,4154,307,100605
11:53:30.897,19671,703.125,-492.1875,-392.578125,0.020769418098732523,-1.0775662801812993,-0.5106833391335408,-1505,-451,-96,4154,307,100605
11:53:30.918,19672,664.0625,-469.7265625,-450.1953125,0.03054326190990077,-1.2498302773531396,-0.7061602153569058,-1516,-452,-84,4154,307,100605
11:53:30.938,19673,613.28125,-435.546875,-513.671875,0.07941248096574201,-1.4001031259498513,-0.910189204915043,-1513,-443,-87,4154,307,100605
11:53:30.958,19674,540.0390625,-411.1328125,-544.921875,0.06841690667817772,-1.5234979040658503,-1.1093312725675961,-1537,-445,-83,4154,307,100605
11:53:30.968,19675,492.1875,-382.8125,-575.1953125,0.02809980095710871,-1.6530013345638297,-1.2803735392630404,-1553,-440,-72,4154,307,100605
11:53:30.989,19676,469.7265625,-368.1640625,-639.6484375,0.019547687622336492,-1.782504765061809,-1.44042023167092,-1565,-435,-58,4154,307,100605
11:53:31.9,19677,412.109375,-320.3125,-732.421875,-0.0317649923862968,-2.188119283225291,-1.6578882564694137,-1573,-433,-58,4154,307,100605
11:53:31.29,19678,334.9609375,-303.7109375,-763.671875,-0.12583823906879116,-1.9804251022379658,-1.7201965107656112,-1598,-430,-50,4154,307,100605
11:53:31.50,19679,234.375,-309.5703125,-791.015625,-0.24434609527920617,-1.988977215572738,-1.794722069825769,-1617,-415,-43,4154,307,100605
11:53:31.60,19680,122.0703125,-279.296875,-844.7265625,-0.2700024352835228,-1.9584339536628372,-1.8936822384138476,-1612,-414,-49,4154,307,100605
11:53:31.80,19681,31.25,-202.1484375,-935.546875,-0.238237442897226,-1.9083430041306,-1.9303341527057285,-1649,-410,-38,4154,307,100605
11:53:31.101,19682,-88.8671875,-105.46875,-988.28125,-0.25656340004316647,-1.7751743822034327,-1.8753562812679074,-1674,-407,-28,4154,307,100605
11:53:31.132,19683,-166.9921875,-102.5390625,-1039.0625,-0.3029891581462157,-1.5210544431130584,-1.6432274907526612,-1683,-401,-29,4154,307,100605
11:53:31.152,19684,-171.875,-138.671875,-1060.546875,-0.4544837372193235,-1.1924089449625261,-1.2754866173574562,-1699,-397,-28,4154,307,100605
11:53:31.172,19685,-146.484375,-89.84375,-1041.015625,-0.4801400772236401,-0.8002334620394002,-0.594982742004867,-1706,-387,-30,4154,307,100605
11:53:31.193,19686,-106.4453125,-10.7421875,-999.0234375,-0.17592918860102844,-0.16859880574265224,-0.1734857276482364,-1707,-383,-31,4154,307,100605
11:53:31.213,19687,-64.453125,-16.6015625,-977.5390625,0.1075122819228507,0.17837264955382048,0.2296853295624538,-1692,-377,-20,4154,307,100605
11:53:31.223,19688,-13.671875,-40.0390625,-943.359375,0.3420845333908886,0.4227187448330266,0.5644394800949663,-1702,-385,-22,4154,307,100605
11:53:31.244,19689,4.8828125,-69.3359375,-938.4765625,0.42394047530942264,0.6181956210563916,0.8014551925157961,-1701,-392,-27,4154,307,100605
11:53:31.285,19690,17.578125,-118.1640625,-964.84375,0.39217548292312593,0.79412480965742,0.9639453458764682,-1695,-395,-22,4154,307,100605
11:53:31.295,19691,24.4140625,-154.296875,-965.8203125,0.3078760800517997,0.9688322677820524,1.071457627799319,-1685,-397,-28,4154,307,100605
11:53:31.315,19692,33.203125,-175.78125,-935.546875,0.20891591146372127,1.1288789601899325,1.1630874135290212,-1675,-401,-28,4154,307,100605
11:53:31.336,19693,29.296875,-194.3359375,-901.3671875,0.07086036763096978,1.2754866173574562,1.2180652849668427,-1667,-403,-35,4154,307,100605
11:53:31.356,19694,79.1015625,-212.890625,-866.2109375,-0.02809980095710871,1.3891075516622868,1.2669345040226838,-1645,-407,-32,4154,307,100605
11:53:31.376,19695,158.203125,-198.2421875,-847.65625,0.06963863715457375,1.3927727430914751,1.306029879267357,-1633,-411,-50,4154,307,100605
11:53:31.386,19696,153.3203125,-178.7109375,-834.9609375,0.15271630954950383,1.4294246573833558,1.308473340220149,-1631,-407,-41,4154,307,100605
11:53:31.407,19697,133.7890625,-203.125,-814.453125,0.05009094953223726,1.466076571675237,1.2986994964089809,-1613,-420,-44,4154,307,100605
11:53:31.427,19698,249.0234375,-239.2578125,-798.828125,-0.11606439525762292,1.4440854231001083,1.2620475821170998,-1597,-421,-64,4154,307,100605
11:53:31.447,19699,358.3984375,-253.90625,-805.6640625,-0.16004669240788005,1.3976596649970594,1.2437216249711593,-1594,-419,-63,4154,307,100605
11:53:31.468,19700,416.9921875,-244.140625,-810.546875,-0.08552113334772216,1.354899098323198,1.2156218240140506,-1574,-428,-67,4154,307,100605
11:53:31.478,19701,502.9296875,-246.09375,-773.4375,0.0158824961931484,1.2999212268853766,1.1557570306706453,-1561,-428,-71,4154,307,100605
11:53:31.498,19702,641.6015625,-308.59375,-752.9296875,0.05009094953223726,1.1753047182929817,0.9810495725460128,-1562,-428,-71,4154,307,100603
11:53:31.519,19703,741.2109375,-368.1640625,-759.765625,-0.026878070480712675,1.0787880106576953,0.839328837284073,-1550,-433,-77,4154,307,100603
11:53:31.549,19704,818.359375,-438.4765625,-728.515625,-0.11850785621041499,0.9407324668249436,0.7342600163140146,-1538,-433,-78,4154,307,100603
11:53:31.570,19705,1018.5546875,-501.953125,-645.5078125,-0.24068090385001806,0.7806857744170637,0.6621779182066487,-1534,-436,-83,4154,307,100603
11:53:31.590,19706,1071.2890625,-540.0390625,-644.53125,-0.37629298672997746,0.6255260039147678,0.555887366760194,-1526,-442,-91,4154,307,100603
11:53:31.610,19707,1015.625,-502.9296875,-683.59375,-0.39828413530510604,0.4679227724596798,0.41416663149825445,-1527,-438,-105,4154,307,100603
11:53:31.630,19708,956.0546875,-465.8203125,-677.734375,-0.238237442897226,0.35552356863124496,0.2736676267127109,-1513,-433,-90,4154,307,100603
11:53:31.640,19709,903.3203125,-463.8671875,-661.1328125,0.02809980095710871,0.21991148575128555,0.18570303241219668,-1524,-438,-101,4154,307,100603
11:53:31.661,19710,852.5390625,-467.7734375,-672.8515625,0.1343903524035634,0.12828170002158323,0.1038470904936626,-1521,-441,-96,4154,307,100603
11:53:31.702,19711,794.921875,-422.8515625,-700.1953125,0.025656340004316647,0.05986479334340551,0.07086036763096978,-1516,-446,-89,4154,307,100603
11:53:31.722,19712,750.9765625,-375.0,-712.890625,0.025656340004316647,0.03787364476827696,0.05742133239061345,-1521,-442,-100,4154,307,100603
11:53:31.732,19713,708.984375,-341.796875,-708.0078125,0.07696902001294993,0.01832595714594046,0.05009094953223726,-1518,-444,-97,4154,307,100603
11:53:31.752,19714,665.0390625,-329.1015625,-697.265625,0.11972958668681102,0.014660765716752368,0.05619960191421742,-1521,-441,-99,4154,307,100603
11:53:31.773,19715,643.5546875,-342.7734375,-690.4296875,0.1148426647812269,0.02809980095710871,0.06230825429619757,-1504,-438,-85,4154,307,100603
11:53:31.793,19716,637.6953125,-337.890625,-694.3359375,0.07941248096574201,0.02809980095710871,0.09040805525330627,-1520,-447,-93,4154,307,100603
11:53:31.813,19717,632.8125,-341.796875,-708.984375,0.05375614096142535,0.0317649923862968,0.10262536001726659,-1522,-446,-98,4154,307,100603
11:53:31.824,19718,619.140625,-334.9609375,-726.5625,0.04153883619746505,0.04153883619746505,0.0989601685880785,-1521,-453,-102,4154,307,100603
11:53:31.844,19719,616.2109375,-341.796875,-727.5390625,0.05619960191421742,0.06963863715457375,0.08918632477691024,-1523,-449,-108,4154,307,100603
11:53:31.864,19720,610.3515625,-360.3515625,-714.84375,0.04520402762665313,0.07086036763096978,0.05619960191421742,-1524,-452,-97,4154,307,100603
11:53:31.885,19721,604.4921875,-365.234375,-704.1015625,-0.012217304763960306,0.0867428638241182,0.0671951762017817,-1519,-454,-98,4154,307,100603
11:53:31.895,19722,607.421875,-355.46875,-708.984375,-0.04031710572106901,0.0989601685880785,0.0830776723949301,-1514,-450,-98,4154,307,100603
11:53:31.915,19723,607.421875,-341.796875,-715.8203125,-0.004886921905584123,0.09407324668249437,0.09162978572970232,-1523,-451,-102,4154,307,100603
11:53:31.936,19724,596.6796875,-347.65625,-706.0546875,0.03665191429188092,0.08918632477691024,0.10140362954087055,-1519,-448,-108,4154,307,100603
11:53:31.976,19725,589.84375,-354.4921875,-683.59375,0.020769418098732523,0.07819075048934597,0.10629055144645469,-1515,-447,-108,4154,307,100603
11:53:31.987,19726,576.171875,-347.65625,-673.828125,-0.04398229715025711,0.05497787143782139,0.10995574287564278,-1519,-452,-109,4154,307,100603
11:53:32.7,19727,573.2421875,-320.3125,-648.4375,-0.12583823906879116,0.026878070480712675,0.14538592669112765,-1519,-451,-108,4154,307,100603
11:53:32.27,19728,580.078125,-314.453125,-632.8125,-0.1478293876439197,0.003665191429188092,0.16859880574265224,-1516,-453,-103,4154,307,100603
11:53:32.48,19729,582.03125,-329.1015625,-607.421875,-0.18081611050661253,-0.03543018381548489,0.19181168479417682,-1511,-451,-114,4154,307,100603
11:53:32.68,19730,597.65625,-346.6796875,-591.796875,-0.20036379812894903,-0.09285151620609834,0.2211332162276816,-1521,-454,-95,4154,307,100603
11:53:32.78,19731,615.234375,-367.1875,-578.125,-0.2541199390903744,-0.1734857276482364,0.2467895562319982,-1515,-454,-98,4154,307,100603
11:53:32.119,19732,628.90625,-393.5546875,-555.6640625,-0.3103195410045918,-0.2651155133779387,0.2431243648028101,-1513,-447,-99,4154,307,100603
11:53:32.139,19733,673.828125,-426.7578125,-542.96875,-0.35063664672566086,-0.3677408733952052,0.238237442897226,-1523,-446,-88,4154,307,100603
11:53:32.149,19734,730.46875,-475.5859375,-550.78125,-0.3775147172063735,-0.4789183467472441,0.20891591146372127,-1529,-450,-102,4154,307,100603
11:53:32.170,19735,788.0859375,-491.2109375,-558.59375,-0.4312708581677988,-0.5888740896228868,0.11606439525762292,-1535,-442,-97,4154,307,100603
11:53:32.190,19736,836.9140625,-498.046875,-587.890625,-0.41783182292744253,-0.7611380867947273,0.03054326190990077,-1530,-443,-81,4154,307,100603
11:53:32.211,19737,849.609375,-495.1171875,-638.671875,-0.3445279943436807,-0.8991936306274787,-0.07941248096574201,-1544,-440,-87,4154,307,100603
11:53:32.231,19738,840.8203125,-512.6953125,-670.8984375,-0.29810223624063154,-1.0030407211211414,-0.19669860669976097,-1554,-435,-82,4154,307,100603
11:53:32.241,19739,804.6875,-518.5546875,-707.03125,-0.2932153143350474,-1.1056660811384078,-0.2944370448114434,-1557,-437,-75,4154,307,100603
11:53:32.262,19740,777.34375,-500.0,-738.28125,-0.31887165433936404,-1.189965484009734,-0.37507125625358145,-1566,-430,-80,4154,307,100603
11:53:32.282,19741,736.328125,-468.75,-742.1875,-0.23579398194443396,-1.26815623449908,-0.5021312257987687,-1578,-433,-67,4154,307,100603
11:53:32.302,19742,679.6875,-461.9140625,-736.328125,-0.05742133239061345,-1.34512525451203,-0.6560692658246685,-1586,-428,-57,4154,307,100603
11:53:32.323,19743,620.1171875,-488.28125,-730.46875,0.06475171524898964,-1.4526375364348805,-0.8087855753741724,-1589,-420,-59,4154,307,100603
11:53:32.333,19744,572.265625,-493.1640625,-736.328125,-0.0476474885794452,-1.6346753774178893,-1.0531316706533784,-1622,-422,-41,4154,307,100603
11:53:32.353,19745,537.109375,-491.2109375,-748.046875,-0.1869247628885927,-1.7776178431562246,-1.2596041211643076,-1626,-416,-54,4154,307,100603
11:53:32.394,19746,416.015625,-329.1015625,-788.0859375,-0.4544837372193235,-1.8435912888816104,-1.4587461888168607,-1643,-407,-51,4154,307,100603
11:53:32.405,19747,286.1328125,-141.6015625,-951.171875,-0.5778785153353226,-1.8154914879245019,-1.6957619012376905,-1663,-402,-39,4154,307,100603
11:53:32.425,19748,208.0078125,-85.9375,-1089.84375,-0.5473352534254218,-1.7568484250574923,-1.8875735860318674,-1672,-399,-39,4154,307,100603
11:53:32.445,19749,153.3203125,-126.953125,-1077.1484375,-0.5900958200992829,-1.7201965107656112,-2.0073031727186783,-1695,-392,-33,4154,307,100603
11:53:32.466,19750,73.2421875,-205.078125,-983.3984375,-0.6829473363053812,-1.7275268936239874,-2.0109683641478666,-1699,-376,-26,4154,307,100603
11:53:32.486,19751,39.0625,-179.6875,-937.5,-0.7354817467904105,-1.7373007374351557,-1.9168951174653726,-1736,-372,-36,4154,307,100603
11:53:32.496,19752,24.4140625,-68.359375,-984.375,-0.7831292353698558,-1.6884315183793146,-1.8606955155511549,-1746,-366,-25,4154,307,100604
11:53:32.538,19753,-7.8125,-46.875,-1067.3828125,-0.7098254067860938,-1.6468926821818495,-1.8765780117443032,-1772,-360,-24,4154,307,100604
11:53:32.558,19754,-94.7265625,-57.6171875,-1099.609375,-0.7073819458333017,-1.6126842288427605,-1.7971655307785612,-1793,-353,-35,4154,307,100604
11:53:32.568,19755,-205.078125,-34.1796875,-1057.6171875,-0.7782423134642715,-1.5650367402633154,-1.6371188383706814,-1802,-347,-31,4154,307,100604
11:53:32.589,19756,-271.484375,28.3203125,-1051.7578125,-0.7098254067860938,-1.4770721459628011,-1.4220942745249798,-1828,-344,-33,4154,307,100604
11:53:32.609,19757,-322.265625,83.0078125,-1049.8046875,-0.4410447019789671,-1.2779300783102483,-1.1826351011513576,-1833,-339,-35,4154,307,100604
11:53:32.629,19758,-394.53125,39.0625,-1039.0625,-0.11239920382843484,-0.9993755296919531,-0.9187413182498152,-1843,-336,-41,4154,307,100604
11:53:32.650,19759,-402.34375,-7.8125,-1009.765625,-0.03787364476827696,-0.6035348553396392,-0.5717698629533424,-1857,-345,-45,4154,307,100604
11:53:32.680,19760,-367.1875,-16.6015625,-1024.4140625,-0.20525072003453318,-0.1905899543177808,0.09773843811168245,-1844,-337,-34,4154,307,100604
11:53:32.700,19761,-372.0703125,31.25,-1083.0078125,-0.16371188383706814,0.39339721339952194,0.5815437067645106,-1855,-341,-39,4154,307,100604
11:53:32.721,19762,-387.6953125,58.59375,-1088.8671875,0.12217304763960309,0.7721336610822913,0.9407324668249436,-1848,-334,-41,4154,307,100604
11:53:32.741,19763,-413.0859375,-24.4140625,-1064.453125,0.3469714552964728,1.1252137687607444,1.1643091440054174,-1834,-338,-34,4154,307,100604
11:53:32.751,19764,-432.6171875,-85.9375,-1009.765625,0.2577851305195625,1.4795156069155933,1.3463469849884258,-1818,-339,-35,4154,307,100604
11:53:32.771,19765,-350.5859375,-102.5390625,-954.1015625,0.019547687622336492,1.7250834326711952,1.4587461888168607,-1808,-341,-38,4154,307,100604
11:53:32.792,19766,-283.203125,-80.078125,-961.9140625,-0.1551597705022959,1.8606955155511549,1.4746286850100092,-1778,-334,-34,4154,307,100604
11:53:32.812,19767,-282.2265625,-56.640625,-954.1015625,-0.24556782575560218,1.9804251022379658,1.4587461888168607,-1765,-337,-32,4154,307,100604
11:53:32.822,19768,-143.5546875,-42.96875,-883.7890625,-0.33964107243809655,2.0793852708260445,1.4098769697610194,-1742,-338,-32,4154,307,100604
11:53:32.843,19769,-0.0,-56.640625,-862.3046875,-0.6059783162924314,2.0732766184440643,1.2803735392630404,-1724,-333,-38,4154,307,100604
11:53:32.863,19770,154.296875,-57.6171875,-843.75,-0.7904596182282319,2.0549506612981236,1.2437216249711593,-1708,-328,-37,4154,307,100604
11:53:32.884,19771,384.765625,6.8359375,-837.890625,-0.6120869686744114,1.9449949184224808,1.1985175973445061,-1679,-318,-38,4154,307,100604
11:53:32.904,19772,605.46875,-41.9921875,-900.390625,-0.21991148575128555,1.7739526517270368,1.1007791592328238,-1659,-321,-60,4154,307,100604
11:53:32.914,19773,757.8125,-179.6875,-868.1640625,-0.006108652381980153,1.5601498183577314,0.9419541973013398,-1651,-320,-57,4154,307,100604
11:53:32.955,19774,896.484375,-263.671875,-803.7109375,-0.020769418098732523,1.3243558364132975,0.7257079029792424,-1636,-326,-59,4154,307,100604
11:53:32.976,19775,971.6796875,-278.3203125,-786.1328125,-0.05009094953223726,1.0494664792241903,0.516791991515521,-1622,-326,-60,4154,307,100604
11:53:32.986,19776,970.703125,-241.2109375,-815.4296875,-0.013439035240356337,0.7757988525114795,0.3824016391119576,-1616,-323,-66,4154,307,100604
11:53:33.6,19777,962.890625,-224.609375,-871.09375,0.1038470904936626,0.39706240482871,0.25656340004316647,-1613,-323,-78,4154,307,100604
11:53:33.27,19778,879.8828125,-222.65625,-887.6953125,0.14905111812031577,0.20525072003453318,0.22724186860966175,-1597,-323,-55,4154,307,100604
11:53:33.47,19779,796.875,-177.734375,-855.46875,0.16004669240788005,0.07941248096574201,0.16004669240788005,-1607,-329,-55,4154,307,100604
11:53:33.68,19780,717.7734375,-139.6484375,-877.9296875,0.2309070600388498,0.01832595714594046,0.10629055144645469,-1602,-330,-79,4154,307,100604
11:53:33.98,19781,649.4140625,-123.046875,-904.296875,0.2431243648028101,0.010995574287564277,0.07696902001294993,-1606,-334,-63,4154,307,100604
11:53:33.118,19782,607.421875,-110.3515625,-889.6484375,0.2211332162276816,0.0317649923862968,0.10262536001726659,-1601,-338,-70,4154,307,100604
11:53:33.139,19783,579.1015625,-95.703125,-878.90625,0.1710422666954443,0.03420845333908886,0.12461650859239513,-1603,-336,-62,4154,307,100604
11:53:33.159,19784,542.96875,-83.984375,-862.3046875,0.15760323145508798,0.03420845333908886,0.13316862192716736,-1603,-339,-67,4154,307,100604
11:53:33.169,19785,515.625,-109.375,-854.4921875,0.18081611050661253,0.010995574287564277,0.11606439525762292,-1595,-338,-57,4154,307,100604
11:53:33.190,19786,473.6328125,-151.3671875,-850.5859375,0.11606439525762292,-0.019547687622336492,0.08063421144213802,-1599,-343,-70,4154,307,100604
11:53:33.210,19787,432.6171875,-189.453125,-843.75,0.010995574287564277,-0.03787364476827696,0.029321531433504737,-1602,-345,-59,4154,307,100604
11:53:33.230,19788,411.1328125,-209.9609375,-848.6328125,-0.024434609527920613,-0.06230825429619757,-0.039095375244672985,-1590,-341,-59,4154,307,100604
11:53:33.240,19789,399.4140625,-224.609375,-867.1875,0.06841690667817772,-0.09407324668249437,-0.13683381335635544,-1603,-343,-52,4154,307,100604
11:53:33.261,19790,373.046875,-250.9765625,-888.671875,0.15393804002589986,-0.08552113334772216,-0.24556782575560218,-1604,-345,-55,4154,307,100604
11:53:33.281,19791,360.3515625,-309.5703125,-894.53125,0.12950343049797927,-0.0867428638241182,-0.38362336958835364,-1604,-347,-55,4154,307,100604
11:53:33.302,19792,339.84375,-341.796875,-917.96875,-0.05497787143782139,-0.09285151620609834,-0.5265658353266892,-1593,-340,-46,4154,307,100604
11:53:33.322,19793,349.609375,-318.359375,-935.546875,-0.2700024352835228,-0.08918632477691024,-0.6621779182066487,-1615,-341,-48,4154,307,100604
11:53:33.332,19794,347.65625,-295.8984375,-959.9609375,-0.38362336958835364,-0.05742133239061345,-0.8967501696746865,-1613,-334,-59,4154,307,100604
11:53:33.373,19795,335.9375,-288.0859375,-953.125,-0.5131268000863329,-0.039095375244672985,-1.0470230182713984,-1618,-333,-54,4154,307,100604
11:53:33.393,19796,327.1484375,-246.09375,-927.734375,-0.678060414399797,-0.008552113334772215,-1.1972958668681102,-1625,-322,-54,4154,307,100604
11:53:33.414,19797,331.0546875,-182.6171875,-917.96875,-0.7183775201208661,0.013439035240356337,-1.350012176417614,-1624,-304,-60,4154,307,100604
11:53:33.424,19798,331.0546875,-137.6953125,-913.0859375,-0.668286570588629,0.014660765716752368,-1.4770721459628011,-1630,-301,-60,4154,307,100604
11:53:33.445,19799,318.359375,-98.6328125,-880.859375,-0.5888740896228868,-0.01710422666954443,-1.6029103850315922,-1621,-283,-62,4154,307,100604
11:53:33.465,19800,290.0390625,-76.171875,-819.3359375,-0.5827654372409066,-0.06230825429619757,-1.740965928864344,-1637,-278,-62,4154,307,100604
11:53:33.485,19801,291.9921875,-57.6171875,-770.5078125,-0.6169738905799955,-0.12217304763960309,-1.880243203173491,-1643,-269,-63,4154,307,100604
11:53:33.516,19802,302.734375,-57.6171875,-728.515625,-0.7354817467904105,-0.2700024352835228,-2.1258110289290935,-1652,-263,-59,4154,307,100613
11:53:33.536,19803,293.9453125,-48.828125,-666.9921875,-0.9358455449193596,-0.39461894387591795,-2.3237313661052506,-1665,-249,-65,4154,307,100613
11:53:33.557,19804,242.1875,10.7421875,-600.5859375,-1.0763445497049031,-0.4715879638888679,-2.5583036175732885,-1671,-240,-58,4154,307,100613
11:53:33.577,19805,217.7734375,107.421875,-556.640625,-0.874759021099558,-0.5485569839018178,-2.784323755706554,-1687,-221,-71,4154,307,100613
11:53:33.587,19806,223.6328125,170.8984375,-524.4140625,-0.553443905807402,-0.668286570588629,-2.9529225614492063,-1700,-211,-70,4154,307,100613
11:53:33.608,19807,196.2890625,182.6171875,-478.515625,-0.6145304296272034,-0.8576547944300136,-3.086091183376374,-1718,-205,-59,4154,307,100613
11:53:33.628,19808,121.09375,217.7734375,-472.65625,-1.028697061125458,-1.067792436370131,-3.158173281483739,-1738,-196,-78,4154,307,100613
11:53:33.648,19809,45.8984375,310.546875,-491.2109375,-1.4062117783318313,-1.2437216249711593,-3.1862730824408483,-1777,-180,-85,4154,307,100613
11:53:33.669,19810,3.90625,474.609375,-498.046875,-1.512502329778286,-1.4172073526193958,-3.2522465281662343,-1788,-181,-86,4154,307,100613
11:53:33.679,19811,-46.875,651.3671875,-528.3203125,-1.2205087459196347,-1.5137240602546822,-3.2913419034109066,-1822,-173,-100,4154,307,100613
11:53:33.699,19812,-114.2578125,678.7109375,-567.3828125,-0.9297368925373793,-1.6139059593191567,-3.310889591033243,-1860,-172,-101,4154,307,100613
11:53:33.720,19813,-162.109375,632.8125,-578.125,-0.9065240134858548,-1.6994270926668789,-3.295007094840095,-1870,-175,-111,4154,307,100613
11:53:33.740,19814,-207.03125,610.3515625,-575.1953125,-1.219287015443239,-1.7886134174437889,-3.285233251028927,-1900,-165,-112,4154,307,100613
11:53:33.750,19815,-241.2109375,713.8671875,-642.578125,-1.5015067554907218,-1.8704693593623234,-3.293785364363699,-1942,-166,-132,4154,307,100613
11:53:33.791,19816,-311.5234375,839.84375,-774.4140625,-1.387885821185891,-1.9254472308001445,-3.2693507548357785,-1979,-174,-149,4154,307,100613
11:53:33.811,19817,-344.7265625,847.65625,-830.078125,-0.995710338262765,-1.9486601098516692,-3.172834047200492,-2003,-179,-161,4154,307,100613
11:53:33.831,19818,-369.140625,771.484375,-757.8125,-0.6462954220135002,-1.942551457469689,-2.9724702490715424,-2036,-191,-176,4154,307,100613
11:53:33.842,19819,-377.9296875,678.7109375,-667.96875,-0.5888740896228868,-1.912008195559788,-2.9382617957324544,-2061,-209,-181,4154,307,100613
11:53:33.862,19820,-401.3671875,680.6640625,-661.1328125,-0.3872885610175418,-1.9572122231864415,-2.9663615966895627,-2065,-213,-189,4154,307,100613
11:53:33.882,19821,-513.671875,741.2109375,-703.125,0.08429940287132612,-2.070833157491272,-2.9626964052603744,-2110,-230,-200,4154,307,100613
11:53:33.903,19822,-638.671875,686.5234375,-780.2734375,0.4532620067429274,-2.146580447027826,-2.8588493147667116,-2131,-255,-225,4154,307,100613
11:53:33.933,19823,-712.890625,563.4765625,-803.7109375,0.40805797911627434,-2.1759019784613307,-2.7159068490283764,-2137,-270,-225,4154,307,100613
11:53:33.954,19824,-784.1796875,490.234375,-735.3515625,-0.0635299847725936,-2.2149973537060035,-2.61328148901111,-2166,-292,-247,4154,307,100613
11:53:33.974,19825,-857.421875,449.21875,-690.4296875,-0.670730031541421,-2.2162190841824,-2.574186113766437,-2185,-316,-268,4154,307,100613
11:53:33.995,19826,-926.7578125,425.78125,-698.2421875,-1.2852604611686242,-2.1746802479849348,-2.5204299728050117,-2191,-321,-281,4154,307,100613
11:53:34.5,19827,-1008.7890625,457.03125,-664.0625,-1.9633208755684213,-1.9743164498559855,-2.434908839457289,-2196,-333,-303,4154,307,100613
11:53:34.26,19828,-1052.734375,499.0234375,-569.3359375,-2.225992927993568,-1.8350391755468385,-2.342057323251191,-2218,-361,-334,4154,307,100613
11:53:34.46,19829,-1057.6171875,535.15625,-500.9765625,-2.3469442451567746,-1.7128661279072352,-2.1649064041737662,-2223,-365,-338,4154,307,100613
11:53:34.87,19830,-1049.8046875,537.109375,-510.7421875,-2.4226915346933287,-1.6029103850315922,-1.9315558831821247,-2234,-378,-355,4154,307,100613
11:53:34.97,19831,-1064.453125,541.9921875,-471.6796875,-2.466673831843586,-1.4929546421559494,-1.666440369804186,-2237,-395,-379,4154,307,100613
11:53:34.117,19832,-1064.453125,574.21875,-368.1640625,-2.419026343264141,-1.354899098323198,-1.470963493580821,-2234,-400,-381,4154,307,100613
11:53:34.138,19833,-1065.4296875,611.328125,-290.0390625,-2.075720079396856,-1.2144000935376547,-1.3316862192716736,-2245,-411,-408,4154,307,100613
11:53:34.158,19834,-1047.8515625,612.3046875,-256.8359375,-1.584584427885652,-1.145983186859477,-1.1875220230569419,-2239,-413,-423,4154,307,100613
11:53:34.178,19835,-1016.6015625,556.640625,-267.578125,-0.9700539982584484,-1.0995574287564276,-0.912632665867835,-2248,-428,-425,4154,307,100613
11:53:34.188,19836,-1003.90625,491.2109375,-254.8828125,-0.7648032782239153,-1.1288789601899325,-0.7599163563183312,-2241,-439,-434,4154,307,100613
11:53:34.209,19837,-1012.6953125,466.796875,-230.46875,-0.6047565858160352,-1.1594222220998334,-0.6719517620178169,-2236,-437,-455,4154,307,100613
11:53:34.229,19838,-1006.8359375,480.46875,-217.7734375,-0.4043927876870862,-1.1924089449625261,-0.631634656296748,-2241,-445,-449,4154,307,100613
11:53:34.249,19839,-988.28125,486.328125,-238.28125,-0.23212879051524585,-1.2131783630612585,-0.6010913943868472,-2248,-448,-476,4154,307,100613
11:53:34.259,19840,-972.65625,428.7109375,-285.15625,-0.18081611050661253,-1.1972958668681102,-0.5766567848589266,-2250,-454,-478,4154,307,100613
11:53:34.280,19841,-985.3515625,357.421875,-247.0703125,-0.35430183815484895,-1.1704177963873974,-0.5424483315198376,-2233,-456,-473,4154,307,100613
11:53:34.300,19842,-986.328125,360.3515625,-213.8671875,-0.5180137219919171,-1.0983356982800316,-0.5400048705670456,-2245,-462,-488,4154,307,100613
11:53:34.321,19843,-989.2578125,401.3671875,-215.8203125,-0.44837508483734323,-1.0519099401769825,-0.5119050696099369,-2239,-468,-492,4154,307,100613
11:53:34.351,19844,-1004.8828125,413.0859375,-281.25,-0.10995574287564278,-0.9822713030224087,-0.41905355340383854,-2243,-472,-507,4154,307,100613
11:53:34.372,19845,-995.1171875,346.6796875,-289.0625,-0.06597344572538566,-0.9346238144429636,-0.27733281814189903,-2238,-476,-512,4154,307,100613
11:53:34.392,19846,-974.609375,292.96875,-235.3515625,-0.1905899543177808,-0.874759021099558,-0.17715091907742447,-2242,-476,-520,4154,307,100613
11:53:34.412,19847,-989.2578125,313.4765625,-207.03125,-0.2822197400474831,-0.8136724972797564,-0.1075122819228507,-2233,-473,-520,4154,307,100613
11:53:34.433,19848,-1020.5078125,355.46875,-225.5859375,-0.1893682238413848,-0.7122688677388859,-0.07330382858376185,-2223,-476,-544,4154,307,100613
11:53:34.443,19849,-1019.53125,319.3359375,-204.1015625,-0.10629055144645469,-0.6084217772452234,-0.025656340004316647,-2227,-477,-540,4154,307,100613
11:53:34.463,19850,-1039.0625,291.015625,-191.40625,-0.12950343049797927,-0.4825835381764321,0.01832595714594046,-2232,-478,-544,4154,307,100613
11:53:34.504,19851,-1087.890625,252.9296875,-357.421875,-0.28099800957108706,-0.14538592669112765,0.04398229715025711,-2227,-478,-546,4154,307,100613
11:53:34.555,19852,-1046.875,266.6015625,-449.21875,0.0671951762017817,0.1893682238413848,0.024434609527920613,-2229,-473,-548,4170,307,100611
11:53:34.575,19853,-1005.859375,225.5859375,-318.359375,0.1710422666954443,0.15149457907310784,-0.020769418098732523,-2234,-475,-552,4170,307,100611
11:53:34.596,19854,-976.5625,227.5390625,-151.3671875,0.2186897552748895,0.05742133239061345,0.0,-2231,-480,-547,4170,307,100611
11:53:34.606,19855,-981.4453125,250.0,-41.015625,0.37140606482439337,-0.01710422666954443,0.04031710572106901,-2226,-474,-550,4170,307,100611
11:53:34.626,19856,-986.328125,254.8828125,54.6875,0.5338962181850655,-0.026878070480712675,0.08429940287132612,-2232,-480,-551,4170,307,100611
11:53:34.647,19857,-949.21875,244.140625,119.140625,0.6267477343911638,0.004886921905584123,0.1038470904936626,-2234,-477,-548,4170,307,100611
11:53:34.667,19858,-928.7109375,228.515625,139.6484375,0.6646213791594408,0.009773843811168246,0.06475171524898964,-2234,-475,-540,4170,307,100611
11:53:34.688,19859,-917.96875,222.65625,109.375,0.7159340591680741,-0.013439035240356337,0.04642575810304917,-2234,-470,-554,4170,307,100611
11:53:34.698,19860,-905.2734375,177.734375,64.453125,0.5717698629533424,-0.0476474885794452,0.058643062867009474,-2230,-464,-551,4170,307,100611
11:53:34.719,19861,-897.4609375,150.390625,55.6640625,0.2528982086139784,-0.08796459430051422,0.04153883619746505,-2230,-467,-564,4170,307,100611
11:53:34.739,19862,-897.4609375,146.484375,54.6875,-0.08552113334772216,-0.10995574287564278,0.019547687622336492,-2217,-456,-556,4170,307,100611
11:53:34.760,19863,-906.25,214.84375,48.828125,-0.1392772743091475,-0.12950343049797927,-0.0012217304763960308,-2231,-464,-559,4170,307,100611
11:53:34.770,19864,-936.5234375,266.6015625,23.4375,0.0671951762017817,-0.11728612573401895,0.0012217304763960308,-2230,-464,-562,4170,307,100611
11:53:34.790,19865,-967.7734375,253.90625,-10.7421875,0.32498030672134415,-0.0671951762017817,-0.003665191429188092,-2225,-462,-564,4170,307,100611
11:53:34.811,19866,-992.1875,193.359375,-56.640625,0.31642819338657197,-0.01832595714594046,0.0012217304763960308,-2232,-466,-558,4170,307,100611
11:53:34.831,19867,-1007.8125,171.875,-89.84375,0.12950343049797927,0.003665191429188092,0.0024434609527920616,-2231,-462,-563,4170,307,100611
11:53:34.852,19868,-1016.6015625,188.4765625,-92.7734375,0.0,0.014660765716752368,-0.021991148575128554,-2232,-459,-562,4170,307,100611
11:53:34.862,19869,-1002.9296875,199.21875,-77.1484375,0.03054326190990077,0.013439035240356337,-0.02809980095710871,-2211,-457,-558,4170,307,100611
11:53:34.882,19870,-979.4921875,203.125,-41.9921875,0.0635299847725936,0.004886921905584123,-0.008552113334772215,-2230,-466,-558,4170,307,100611
11:53:34.903,19871,-955.078125,198.2421875,-21.484375,0.0867428638241182,0.006108652381980153,0.007330382858376184,-2232,-467,-553,4170,307,100611
11:53:34.923,19872,-944.3359375,192.3828125,-9.765625,0.05375614096142535,0.012217304763960306,-0.0024434609527920616,-2228,-462,-556,4170,307,100611
11:53:34.943,19873,-947.265625,212.890625,9.765625,0.0317649923862968,0.029321531433504737,-0.03665191429188092,-2231,-464,-563,4170,307,100611
11:53:34.953,19874,-942.3828125,222.65625,32.2265625,0.03054326190990077,0.03420845333908886,-0.04642575810304917,-2229,-464,-559,4170,307,100611
11:53:34.974,19875,-940.4296875,213.8671875,32.2265625,0.025656340004316647,0.019547687622336492,-0.04398229715025711,-2225,-463,-546,4170,307,100611
11:53:34.994,19876,-937.5,227.5390625,27.34375,0.03543018381548489,0.004886921905584123,-0.0317649923862968,-2223,-458,-559,4170,307,100611
11:53:35.14,19877,-947.265625,229.4921875,27.34375,0.05619960191421742,-0.020769418098732523,-0.004886921905584123,-2239,-467,-559,4170,307,100611
11:53:35.34,19878,-953.125,220.703125,24.4140625,0.05009094953223726,-0.026878070480712675,0.009773843811168246,-2222,-460,-563,4170,307,100611
11:53:35.45,19879,-947.265625,209.9609375,11.71875,0.03543018381548489,-0.01832595714594046,0.007330382858376184,-2234,-460,-553,4170,307,100611
11:53:35.65,19880,-955.078125,203.125,-2.9296875,0.006108652381980153,-0.0158824961931484,-0.0024434609527920616,-2233,-462,-566,4170,307,100611
11:53:35.85,19881,-963.8671875,205.078125,-16.6015625,-0.014660765716752368,-0.003665191429188092,-0.009773843811168246,-2227,-461,-557,4170,307,100611
11:53:35.105,19882,-962.890625,205.078125,-19.53125,-0.008552113334772215,-0.004886921905584123,-0.01710422666954443,-2231,-464,-568,4170,307,100611
11:53:35.116,19883,-964.84375,213.8671875,-28.3203125,0.029321531433504737,0.0024434609527920616,-0.0158824961931484,-2226,-457,-561,4170,307,100611
11:53:35.136,19884,-974.609375,203.125,-35.15625,0.013439035240356337,0.0158824961931484,-0.0012217304763960308,-2231,-461,-560,4170,307,100611
11:53:35.156,19885,-972.65625,204.1015625,-22.4609375,-0.006108652381980153,0.023212879051524585,-0.007330382858376184,-2230,-464,-568,4170,307,100611
11:53:35.197,19886,-967.7734375,199.21875,-12.6953125,0.0012217304763960308,0.014660765716752368,-0.004886921905584123,-2229,-459,-555,4170,307,100611
11:53:35.207,19887,-953.125,203.125,-11.71875,0.0012217304763960308,0.012217304763960306,-0.006108652381980153,-2229,-461,-560,4170,307,100611
11:53:35.228,19888,-957.03125,213.8671875,-0.9765625,0.03298672286269283,0.0158824961931484,-0.020769418098732523,-2227,-461,-550,4170,307,100611
11:53:35.248,19889,-963.8671875,213.8671875,3.90625,0.025656340004316647,0.013439035240356337,-0.010995574287564277,-2234,-459,-557,4170,307,100611
11:53:35.268,19890,-956.0546875,197.265625,10.7421875,-0.039095375244672985,0.025656340004316647,-0.008552113334772215,-2224,-461,-559,4170,307,100611
11:53:35.289,19891,-948.2421875,199.21875,10.7421875,-0.09285151620609834,0.0158824961931484,-0.019547687622336492,-2230,-466,-562,4170,307,100611
11:53:35.299,19892,-955.078125,213.8671875,9.765625,-0.06475171524898964,0.013439035240356337,-0.026878070480712675,-2234,-461,-561,4170,307,100611
11:53:35.339,19893,-949.21875,218.75,7.8125,-0.021991148575128554,0.007330382858376184,-0.013439035240356337,-2223,-463,-561,4170,307,100611
11:53:35.360,19894,-957.03125,210.9375,-0.9765625,-0.01832595714594046,0.010995574287564277,-0.013439035240356337,-2230,-464,-559,4170,307,100611
11:53:35.370,19895,-962.890625,210.9375,-1.953125,-0.006108652381980153,0.023212879051524585,-0.013439035240356337,-2236,-466,-566,4170,307,100611
11:53:35.390,19896,-962.890625,223.6328125,-5.859375,0.004886921905584123,0.013439035240356337,-0.029321531433504737,-2224,-463,-563,4170,307,100611
11:53:35.410,19897,-965.8203125,215.8203125,-14.6484375,-0.003665191429188092,0.0158824961931484,-0.009773843811168246,-2222,-462,-549,4170,307,100611
11:53:35.431,19898,-968.75,215.8203125,-18.5546875,0.0,0.023212879051524585,0.0024434609527920616,-2233,-464,-558,4170,307,100611
11:53:35.451,19899,-959.9609375,214.84375,-20.5078125,0.029321531433504737,0.029321531433504737,0.021991148575128554,-2232,-465,-562,4170,307,100611
11:53:35.461,19900,-952.1484375,210.9375,-20.5078125,0.04153883619746505,0.029321531433504737,0.01832595714594046,-2230,-462,-570,4170,307,100611
11:53:35.482,19901,-957.03125,202.1484375,-20.5078125,0.02809980095710871,0.04153883619746505,0.012217304763960306,-2231,-463,-556,4170,307,100611
11:53:35.502,19902,-961.9140625,206.0546875,-7.8125,-0.009773843811168246,0.052534410485029326,0.004886921905584123,-2232,-461,-559,4148,307,100613
11:53:35.523,19903,-963.8671875,212.890625,2.9296875,-0.008552113334772215,0.051312680008633295,0.021991148575128554,-2236,-463,-563,4148,307,100613
11:53:35.543,19904,-955.078125,216.796875,3.90625,0.012217304763960306,0.0476474885794452,0.03298672286269283,-2213,-459,-562,4148,307,100613
11:53:35.553,19905,-950.1953125,211.9140625,3.90625,0.024434609527920613,0.03543018381548489,0.03420845333908886,-2230,-463,-551,4148,307,100613
11:53:35.574,19906,-949.21875,210.9375,-0.0,0.029321531433504737,0.019547687622336492,0.04153883619746505,-2228,-460,-552,4148,307,100613
11:53:35.614,19907,-954.1015625,206.0546875,0.9765625,0.007330382858376184,0.026878070480712675,0.058643062867009474,-2229,-460,-574,4148,307,100613
11:53:35.624,19908,-956.0546875,206.0546875,2.9296875,-0.008552113334772215,0.01710422666954443,0.07819075048934597,-2229,-460,-551,4148,307,100613
11:53:35.645,19909,-955.078125,208.0078125,2.9296875,-0.019547687622336492,0.014660765716752368,0.07330382858376185,-2227,-462,-560,4148,307,100613
11:53:35.665,19910,-960.9375,205.078125,-0.0,-0.0024434609527920616,0.004886921905584123,0.07574728953655392,-2231,-456,-554,4148,307,100613
11:53:35.686,19911,-966.796875,196.2890625,-8.7890625,-0.03543018381548489,0.01710422666954443,0.07208209810736582,-2222,-453,-551,4148,307,100613
11:53:35.706,19912,-953.125,175.78125,-0.9765625,-0.10262536001726659,0.013439035240356337,0.05497787143782139,-2227,-459,-560,4148,307,100613
11:53:35.716,19913,-940.4296875,171.875,1.953125,-0.1551597705022959,0.0158824961931484,0.03420845333908886,-2233,-459,-565,4148,307,100613
11:53:35.757,19914,-937.5,198.2421875,-0.9765625,-0.12583823906879116,0.0,0.014660765716752368,-2232,-459,-557,4148,307,100613
11:53:35.777,19915,-944.3359375,222.65625,3.90625,-0.06597344572538566,0.0012217304763960308,-0.0024434609527920616,-2234,-460,-553,4148,307,100613
11:53:35.798,19916,-958.984375,235.3515625,2.9296875,-0.052534410485029326,-0.008552113334772215,-0.006108652381980153,-2234,-460,-559,4148,307,100613
11:53:35.808,19917,-958.0078125,240.234375,-2.9296875,-0.07208209810736582,-0.009773843811168246,0.012217304763960306,-2233,-459,-560,4148,307,100613
11:53:35.828,19918,-958.984375,248.046875,-8.7890625,-0.08796459430051422,-0.0158824961931484,0.03420845333908886,-2229,-455,-561,4148,307,100613
11:53:35.849,19919,-964.84375,256.8359375,-18.5546875,-0.025656340004316647,-0.010995574287564277,0.04398229715025711,-2232,-459,-557,4148,307,100613
11:53:35.869,19920,-962.890625,261.71875,-27.34375,0.05497787143782139,-0.010995574287564277,0.03787364476827696,-2237,-457,-558,4148,307,100613
11:53:35.900,19921,-957.03125,252.9296875,-33.203125,0.08063421144213802,0.004886921905584123,0.04642575810304917,-2225,-454,-572,4148,307,100613
11:53:35.920,19922,-961.9140625,244.140625,-15.625,0.07452555906015788,0.024434609527920613,0.06230825429619757,-2230,-456,-559,4148,307,100613
11:53:35.940,19923,-957.03125,230.46875,-1.953125,0.07330382858376185,0.0158824961931484,0.06475171524898964,-2231,-458,-564,4148,307,100613
11:53:35.961,19924,-942.3828125,221.6796875,2.9296875,0.08063421144213802,0.010995574287564277,0.05375614096142535,-2229,-455,-557,4148,307,100613
11:53:35.971,19925,-954.1015625,212.890625,7.8125,0.09773843811168245,0.006108652381980153,0.05375614096142535,-2224,-453,-567,4148,307,100613
11:53:35.992,19926,-951.171875,198.2421875,8.7890625,0.06475171524898964,0.019547687622336492,0.058643062867009474,-2232,-458,-558,4148,307,100613
11:53:36.12,19927,-951.171875,186.5234375,15.625,-0.07330382858376185,0.04153883619746505,0.05375614096142535,-2231,-453,-561,4148,307,100613
11:53:36.32,19928,-950.1953125,184.5703125,13.671875,-0.12095131716320705,0.03054326190990077,0.039095375244672985,-2232,-450,-553,4148,307,100613
11:53:36.53,19929,-956.0546875,200.1953125,6.8359375,-0.14905111812031577,0.01710422666954443,0.026878070480712675,-2233,-449,-560,4148,307,100613
11:53:36.63,19930,-965.8203125,210.9375,-6.8359375,-0.20036379812894903,0.026878070480712675,0.03054326190990077,-2233,-448,-554,4148,307,100613
11:53:36.84,19931,-961.9140625,221.6796875,-16.6015625,-0.2712241657599188,0.05009094953223726,0.0476474885794452,-2229,-447,-555,4148,307,100613
11:53:36.105,19932,-955.078125,227.5390625,-20.5078125,-0.31642819338657197,0.05009094953223726,0.05986479334340551,-2215,-447,-559,4148,307,100613
11:53:36.125,19933,-966.796875,245.1171875,-12.6953125,-0.31154127148098787,0.06475171524898964,0.02809980095710871,-2231,-452,-548,4148,307,100613
11:53:36.135,19934,-958.0078125,264.6484375,-11.71875,-0.2528982086139784,0.0671951762017817,0.03665191429188092,-2231,-448,-567,4148,307,100613
11:53:36.176,19935,-956.0546875,271.484375,-5.859375,-0.2028072590817411,0.06475171524898964,0.07941248096574201,-2233,-453,-561,4148,307,100613
11:53:36.196,19936,-956.0546875,260.7421875,4.8828125,-0.20647245051092922,0.0671951762017817,0.09040805525330627,-2231,-452,-546,4148,307,100613
11:53:36.216,19937,-948.2421875,240.234375,7.8125,-0.20891591146372127,0.05497787143782139,0.08429940287132612,-2231,-449,-555,4148,307,100613
11:53:36.226,19938,-939.453125,231.4453125,5.859375,-0.23701571242082997,0.05497787143782139,0.05986479334340551,-2236,-452,-554,4148,307,100613
11:53:36.247,19939,-948.2421875,234.375,-5.859375,-0.27977627909469105,0.06841690667817772,0.0476474885794452,-2224,-451,-557,4148,307,100613
11:53:36.267,19940,-954.1015625,245.1171875,10.7421875,-0.2858849314766712,0.07696902001294993,0.03665191429188092,-2225,-456,-561,4148,307,100613
11:53:36.318,19941,-946.2890625,249.0234375,15.625,-0.2651155133779387,0.06841690667817772,0.04276056667386108,-2234,-457,-555,4148,307,100613
11:53:36.338,19942,-940.4296875,241.2109375,4.8828125,-0.2675589743307307,0.05009094953223726,0.04153883619746505,-2214,-446,-554,4148,307,100613
11:53:36.358,19943,-937.5,242.1875,-8.7890625,-0.2858849314766712,0.0317649923862968,0.04276056667386108,-2217,-448,-545,4148,307,100613
11:53:36.379,19944,-956.0546875,249.0234375,-9.765625,-0.28099800957108706,0.048869219055841226,0.05009094953223726,-2238,-458,-537,4148,307,100613
11:53:36.389,19945,-967.7734375,247.0703125,-5.859375,-0.2895501229058593,0.05619960191421742,0.04153883619746505,-2230,-460,-547,4148,307,100613
11:53:36.409,19946,-943.359375,245.1171875,0.9765625,-0.2932153143350474,0.052534410485029326,0.019547687622336492,-2228,-454,-548,4148,307,100613
11:53:36.430,19947,-945.3125,292.96875,-1.953125,-0.26267205242514663,0.04031710572106901,-0.009773843811168246,-2233,-460,-549,4148,307,100613
11:53:36.450,19948,-944.3359375,302.734375,0.9765625,-0.2028072590817411,0.039095375244672985,0.003665191429188092,-2237,-458,-551,4148,307,100613
11:53:36.471,19949,-939.453125,296.875,0.9765625,-0.17592918860102844,0.03665191429188092,0.052534410485029326,-2227,-457,-556,4148,307,100613
11:53:36.481,19950,-939.453125,279.296875,3.90625,-0.1343903524035634,0.039095375244672985,0.07696902001294993,-2235,-455,-538,4148,307,100613
11:53:36.502,19951,-946.2890625,264.6484375,6.8359375,-0.09407324668249437,0.04276056667386108,0.07086036763096978,-2244,-452,-550,4148,307,100613
11:53:36.522,19952,-950.1953125,257.8125,6.8359375,-0.09407324668249437,0.05009094953223726,0.05497787143782139,-2233,-451,-557,4154,307,100611
11:53:36.542,19953,-951.171875,256.8359375,11.71875,-0.07819075048934597,0.0476474885794452,0.06108652381980154,-2223,-452,-550,4154,307,100611
11:53:36.563,19954,-943.359375,246.09375,1.953125,-0.0635299847725936,0.03665191429188092,0.051312680008633295,-2232,-453,-549,4154,307,100611
11:53:36.573,19955,-936.5234375,234.375,-2.9296875,-0.10018189906447451,0.025656340004316647,0.04520402762665313,-2241,-453,-557,4154,307,100611
11:53:36.594,19956,-944.3359375,243.1640625,-5.859375,-0.17470745812463243,0.03054326190990077,0.03298672286269283,-2235,-448,-544,4154,307,100611
11:53:36.614,19957,-943.359375,249.0234375,-3.90625,-0.2076941809873252,0.03787364476827696,0.03054326190990077,-2238,-455,-556,4154,307,100611
11:53:36.635,19958,-941.40625,263.671875,2.9296875,-0.20402898955813717,0.04153883619746505,0.029321531433504737,-2237,-454,-541,4154,307,100611
11:53:36.645,19959,-941.40625,275.390625,2.9296875,-0.19914206765255302,0.03543018381548489,0.0158824961931484,-2234,-453,-550,4154,307,100611
11:53:36.666,19960,-939.453125,280.2734375,3.90625,-0.1905899543177808,0.026878070480712675,0.013439035240356337,-2219,-451,-554,4154,307,100611
11:53:36.686,19961,-939.453125,295.8984375,-0.9765625,-0.1905899543177808,0.013439035240356337,0.019547687622336492,-2234,-456,-553,4154,307,100611
11:53:36.706,19962,-935.546875,302.734375,-3.90625,-0.1551597705022959,0.0158824961931484,0.03420845333908886,-2232,-456,-555,4154,307,100611
11:53:36.737,19963,-950.1953125,294.921875,-4.8828125,-0.10873401239924674,0.014660765716752368,0.06475171524898964,-2228,-457,-542,4154,307,100611
11:53:36.757,19964,-938.4765625,266.6015625,-2.9296875,-0.09773843811168245,0.02809980095710871,0.08552113334772216,-2232,-460,-564,4154,307,100611
11:53:36.777,19965,-928.7109375,262.6953125,-1.953125,-0.11972958668681102,0.007330382858376184,0.07696902001294993,-2233,-457,-546,4154,307,100611
11:53:36.798,19966,-930.6640625,272.4609375,-5.859375,-0.10995574287564278,0.0,0.0476474885794452,-2232,-453,-551,4154,307,100611
11:53:36.818,19967,-936.5234375,282.2265625,0.9765625,-0.05742133239061345,-0.009773843811168246,0.0317649923862968,-2216,-453,-556,4154,307,100611
11:53:36.829,19968,-930.6640625,290.0390625,-1.953125,0.04520402762665313,-0.03543018381548489,0.024434609527920613,-2233,-462,-543,4154,307,100611
11:53:36.849,19969,-925.78125,292.96875,-15.625,0.1111774733520388,-0.05375614096142535,0.02809980095710871,-2233,-454,-539,4154,307,100611
11:53:36.869,19970,-926.7578125,296.875,-26.3671875,0.14905111812031577,-0.06475171524898964,0.021991148575128554,-2228,-456,-547,4154,307,100611
11:53:36.890,19971,-929.6875,308.59375,-30.2734375,0.1478293876439197,-0.06475171524898964,0.023212879051524585,-2228,-449,-557,4154,307,100611
11:53:36.901,19972,-936.5234375,312.5,-23.4375,0.16004669240788005,-0.0476474885794452,0.026878070480712675,-2238,-453,-555,4154,307,100611
11:53:36.921,19973,-935.546875,314.453125,-11.71875,0.19303341527057283,-0.0476474885794452,0.025656340004316647,-2240,-453,-547,4154,307,100611
11:53:36.942,19974,-940.4296875,316.40625,5.859375,0.20402898955813717,-0.05375614096142535,0.02809980095710871,-2221,-445,-552,4154,307,100611
11:53:36.962,19975,-933.59375,308.59375,7.8125,0.23212879051524585,-0.058643062867009474,0.03298672286269283,-2228,-450,-554,4154,307,100611
11:53:36.972,19976,-930.6640625,297.8515625,7.8125,0.29932396671702755,-0.06108652381980154,0.02809980095710871,-2233,-449,-554,4154,307,100611
11:53:37.13,19977,-922.8515625,290.0390625,10.7421875,0.3384193419617005,-0.058643062867009474,0.026878070480712675,-2226,-452,-543,4154,307,100611
11:53:37.34,19978,-940.4296875,283.203125,11.71875,0.35185837720205687,-0.0635299847725936,0.012217304763960306,-2230,-449,-554,4154,307,100611
11:53:37.54,19979,-953.125,283.203125,10.7421875,0.38606683054114566,-0.06230825429619757,-0.0012217304763960308,-2236,-446,-561,4154,307,100611
11:53:37.64,19980,-950.1953125,272.4609375,19.53125,0.4056145181634822,-0.05986479334340551,-0.020769418098732523,-2233,-443,-562,4154,307,100611
11:53:37.84,19981,-932.6171875,269.53125,16.6015625,0.3775147172063735,-0.07330382858376185,-0.020769418098732523,-2224,-446,-551,4154,307,100611
11:53:37.105,19982,-928.7109375,272.4609375,12.6953125,0.3103195410045918,-0.08063421144213802,-0.04031710572106901,-2238,-446,-557,4154,307,100611
11:53:37.125,19983,-944.3359375,283.203125,16.6015625,0.24923301718479027,-0.08552113334772216,-0.0635299847725936,-2236,-446,-553,4154,307,100611
11:53:37.155,19984,-953.125,288.0859375,17.578125,0.23335052099164189,-0.07696902001294993,-0.05742133239061345,-2231,-444,-557,4154,307,100611
11:53:37.176,19985,-936.5234375,290.0390625,17.578125,0.19914206765255302,-0.0635299847725936,-0.03298672286269283,-2229,-445,-560,4154,307,100611
11:53:37.196,19986,-939.453125,310.546875,20.5078125,0.197920337176157,-0.07696902001294993,-0.05497787143782139,-2225,-449,-559,4154,307,100611
11:53:37.216,19987,-950.1953125,332.03125,10.7421875,0.23945917337362205,-0.0867428638241182,-0.06841690667817772,-2228,-442,-568,4154,307,100611
11:53:37.227,19988,-957.03125,329.1015625,3.90625,0.3090978105281958,-0.08063421144213802,-0.04520402762665313,-2225,-443,-568,4154,307,100611
11:53:37.247,19989,-950.1953125,307.6171875,4.8828125,0.3726277953007894,-0.0635299847725936,-0.01710422666954443,-2232,-446,-568,4154,307,100611
11:53:37.267,19990,-943.359375,272.4609375,4.8828125,0.3811799086355616,-0.0476474885794452,-0.008552113334772215,-2230,-442,-569,4154,307,100611
11:53:37.288,19991,-929.6875,266.6015625,3.90625,0.35185837720205687,-0.051312680008633295,-0.04153883619746505,-2227,-445,-562,4154,307,100611
11:53:37.308,19992,-936.5234375,272.4609375,3.90625,0.3628539514896212,-0.06230825429619757,-0.07330382858376185,-2229,-442,-566,4154,307,100611
11:53:37.318,19993,-939.453125,256.8359375,12.6953125,0.41905355340383854,-0.05986479334340551,-0.05619960191421742,-2226,-440,-565,4154,307,100611
11:53:37.339,19994,-940.4296875,224.609375,24.4140625,0.37018433434799736,-0.05375614096142535,-0.026878070480712675,-2228,-439,-567,4154,307,100611
11:53:37.359,19995,-946.2890625,217.7734375,18.5546875,0.3017674276698196,-0.05375614096142535,-0.03543018381548489,-2218,-436,-568,4154,307,100611
11:53:37.380,19996,-948.2421875,221.6796875,11.71875,0.24801128670839426,-0.05497787143782139,-0.05619960191421742,-2227,-438,-573,4154,307,100611
11:53:37.400,19997,-953.125,225.5859375,12.6953125,0.20647245051092922,-0.04276056667386108,-0.07696902001294993,-2231,-437,-569,4154,307,100611
11:53:37.431,19998,-962.890625,233.3984375,10.7421875,0.15393804002589986,-0.025656340004316647,-0.052534410485029326,-2225,-435,-561,4154,307,100611
11:53:37.451,19999,-957.03125,239.2578125,7.8125,0.11972958668681102,-0.013439035240356337,-0.03420845333908886,-2229,-435,-571,4154,307,100611
11:53:37.472,20000,-947.265625,238.28125,6.8359375,0.08796459430051422,-0.019547687622336492,-0.019547687622336492,-2231,-438,-569,4154,307,100611
11:53:37.482,20001,-956.0546875,255.859375,5.859375,0.039095375244672985,-0.021991148575128554,-0.023212879051524585,-2231,-433,-573,4154,307,100611
11:53:37.503,20002,-957.03125,276.3671875,-1.953125,0.06841690667817772,-0.025656340004316647,-0.025656340004316647,-2212,-437,-555,4166,307,100606
11:53:37.523,20003,-955.078125,282.2265625,-7.8125,0.12095131716320705,-0.021991148575128554,-0.02809980095710871,-2226,-434,-578,4166,307,100606
11:53:37.543,20004,-942.3828125,282.2265625,-4.8828125,0.16004669240788005,-0.029321531433504737,-0.03298672286269283,-2234,-440,-568,4166,307,100606
11:53:37.574,20005,-938.4765625,266.6015625,-2.9296875,0.16982053621904827,-0.03420845333908886,-0.051312680008633295,-2220,-438,-571,4166,307,100606
11:53:37.594,20006,-942.3828125,278.3203125,-2.9296875,0.17470745812463243,-0.048869219055841226,-0.07941248096574201,-2215,-434,-564,4166,307,100606
11:53:37.615,20007,-941.40625,295.8984375,-4.8828125,0.2162462943220974,-0.05497787143782139,-0.12583823906879116,-2233,-437,-568,4166,307,100606
11:53:37.635,20008,-952.1484375,290.0390625,-14.6484375,0.2736676267127109,-0.051312680008633295,-0.10873401239924674,-2231,-441,-568,4166,307,100606
11:53:37.645,20009,-954.1015625,271.484375,-11.71875,0.2919935838586513,-0.04153883619746505,-0.07696902001294993,-2214,-433,-569,4166,307,100606
11:53:37.666,20010,-943.359375,249.0234375,-8.7890625,0.2614503219487506,-0.04276056667386108,-0.06597344572538566,-2228,-443,-564,4166,307,100606
11:53:37.686,20011,-953.125,245.1171875,-4.8828125,0.2724458962363148,-0.039095375244672985,-0.0635299847725936,-2225,-441,-559,4166,307,100606
11:53:37.727,20012,-958.984375,238.28125,1.953125,0.27977627909469105,-0.04398229715025711,-0.08552113334772216,-2224,-435,-572,4166,307,100606
11:53:37.737,20013,-958.984375,236.328125,5.859375,0.2883283924294633,-0.02809980095710871,-0.09040805525330627,-2227,-439,-563,4166,307,100606
11:53:37.757,20014,-951.171875,233.3984375,0.9765625,0.238237442897226,-0.02809980095710871,-0.09407324668249437,-2232,-441,-572,4166,307,100606
11:53:37.778,20015,-949.21875,238.28125,3.90625,0.1869247628885927,-0.007330382858376184,-0.10873401239924674,-2227,-437,-566,4166,307,100606
11:53:37.849,20016,-953.125,242.1875,12.6953125,0.1466076571675237,0.006108652381980153,-0.11239920382843484,-2221,-439,-568,4166,307,100606
11:53:37.870,20017,-949.21875,253.90625,14.6484375,0.10140362954087055,0.020769418098732523,-0.09285151620609834,-2223,-439,-569,4166,307,100606
11:53:37.890,20018,-953.125,259.765625,21.484375,0.04153883619746505,0.03054326190990077,-0.04153883619746505,-2221,-444,-575,4166,307,100606
11:53:37.901,20019,-953.125,260.7421875,23.4375,-0.004886921905584123,0.03787364476827696,-0.01710422666954443,-2227,-439,-560,4166,307,100606
11:53:37.921,20020,-954.1015625,278.3203125,17.578125,-0.012217304763960306,0.03665191429188092,0.004886921905584123,-2233,-438,-567,4166,307,100606
11:53:37.941,20021,-948.2421875,284.1796875,14.6484375,0.025656340004316647,0.04520402762665313,0.01832595714594046,-2225,-440,-565,4166,307,100606
11:53:37.962,20022,-948.2421875,267.578125,15.625,0.05497787143782139,0.051312680008633295,0.04276056667386108,-2223,-433,-569,4166,307,100606
11:53:37.982,20023,-951.171875,247.0703125,15.625,0.06841690667817772,0.048869219055841226,0.0476474885794452,-2209,-431,-566,4166,307,100606
11:53:37.993,20024,-945.3125,237.3046875,9.765625,0.07330382858376185,0.04642575810304917,0.03298672286269283,-2222,-436,-574,4166,307,100606
11:53:38.13,20025,-941.40625,240.234375,-5.859375,0.08185594191853407,0.0317649923862968,0.010995574287564277,-2226,-435,-565,4166,307,100606
11:53:38.33,20026,-943.359375,238.28125,-6.8359375,0.09162978572970232,0.0317649923862968,-0.0012217304763960308,-2225,-436,-567,4166,307,100606
11:53:38.54,20027,-959.9609375,224.609375,-13.671875,0.06597344572538566,0.04398229715025711,0.008552113334772215,-2228,-434,-558,4166,307,100606
11:53:38.74,20028,-958.984375,215.8203125,-10.7421875,-0.006108652381980153,0.06230825429619757,0.025656340004316647,-2229,-432,-563,4166,307,100606
11:53:38.84,20029,-956.0546875,211.9140625,0.9765625,-0.08918632477691024,0.07086036763096978,0.0317649923862968,-2229,-434,-560,4166,307,100606
11:53:38.105,20030,-948.2421875,228.515625,4.8828125,-0.0989601685880785,0.07086036763096978,0.024434609527920613,-2216,-434,-567,4166,307,100606
11:53:38.125,20031,-940.4296875,246.09375,0.9765625,-0.07330382858376185,0.051312680008633295,-0.007330382858376184,-2227,-435,-575,4166,307,100606
11:53:38.145,20032,-947.265625,232.421875,-3.90625,-0.051312680008633295,0.05497787143782139,-0.007330382858376184,-2231,-432,-564,4166,307,100606
11:53:38.166,20033,-947.265625,241.2109375,-13.671875,-0.1233947781159991,0.05619960191421742,0.010995574287564277,-2227,-434,-565,4166,307,100606
11:53:38.176,20034,-943.359375,248.046875,-13.671875,-0.17715091907742447,0.06475171524898964,0.03420845333908886,-2227,-435,-558,4166,307,100606
11:53:38.197,20035,-937.5,268.5546875,-10.7421875,-0.2150245638457014,0.08552113334772216,0.05619960191421742,-2225,-431,-575,4166,307,100606
11:53:38.217,20036,-937.5,275.390625,-9.765625,-0.17959438003021652,0.08185594191853407,0.07696902001294993,-2225,-433,-573,4166,307,100606
11:53:38.238,20037,-948.2421875,272.4609375,-7.8125,-0.15271630954950383,0.08185594191853407,0.10262536001726659,-2207,-431,-568,4166,307,100606
11:53:38.248,20038,-939.453125,276.3671875,-15.625,-0.1233947781159991,0.06963863715457375,0.10018189906447451,-2226,-434,-558,4166,307,100606
11:53:38.268,20039,-932.6171875,268.5546875,-17.578125,-0.0989601685880785,0.051312680008633295,0.11728612573401895,-2223,-435,-553,4166,307,100606
11:53:38.289,20040,-938.4765625,267.578125,-12.6953125,-0.08918632477691024,0.04520402762665313,0.10262536001726659,-2225,-438,-563,4166,307,100606
11:53:38.310,20041,-930.6640625,269.53125,-17.578125,-0.0635299847725936,0.03054326190990077,0.08429940287132612,-2224,-436,-564,4166,307,100606
11:53:38.330,20042,-924.8046875,276.3671875,-19.53125,-0.0317649923862968,0.020769418098732523,0.07208209810736582,-2228,-431,-552,4166,307,100606
11:53:38.340,20043,-927.734375,264.6484375,-17.578125,-0.04031710572106901,-0.013439035240356337,0.04153883619746505,-2225,-432,-552,4166,307,100606
11:53:38.361,20044,-934.5703125,266.6015625,-24.4140625,-0.10018189906447451,-0.010995574287564277,0.021991148575128554,-2211,-426,-558,4166,307,100606
11:53:38.381,20045,-931.640625,293.9453125,-20.5078125,-0.11972958668681102,-0.009773843811168246,-0.008552113334772215,-2226,-432,-556,4166,307,100606
11:53:38.401,20046,-937.5,318.359375,-19.53125,-0.0989601685880785,-0.014660765716752368,-0.004886921905584123,-2231,-435,-564,4166,307,100606
11:53:38.412,20047,-924.8046875,338.8671875,-14.6484375,-0.03298672286269283,-0.012217304763960306,0.021991148575128554,-2222,-431,-569,4166,307,100606
11:53:38.432,20048,-921.875,333.0078125,-15.625,0.04276056667386108,-0.026878070480712675,0.04398229715025711,-2228,-431,-563,4166,307,100606
11:53:38.453,20049,-931.640625,338.8671875,-11.71875,0.10873401239924674,-0.03665191429188092,0.05619960191421742,-2227,-431,-557,4166,307,100606
11:53:38.473,20050,-931.640625,328.125,-14.6484375,0.197920337176157,-0.029321531433504737,0.0476474885794452,-2227,-426,-548,4166,307,100606
11:53:38.494,20051,-931.640625,313.4765625,-16.6015625,0.3017674276698196,-0.03298672286269283,0.04276056667386108,-2224,-429,-558,4166,307,100606
11:53:38.504,20052,-936.5234375,297.8515625,-9.765625,0.33719761148530447,-0.03420845333908886,0.04276056667386108,-2225,-425,-557,4154,307,100605
11:53:38.524,20053,-949.21875,269.53125,0.9765625,0.32498030672134415,-0.0476474885794452,0.023212879051524585,-2226,-426,-558,4154,307,100605
11:53:38.565,20054,-950.1953125,255.859375,3.90625,0.3017674276698196,-0.05497787143782139,0.0024434609527920616,-2220,-421,-558,4154,307,100605
11:53:38.585,20055,-948.2421875,259.765625,-5.859375,0.2712241657599188,-0.05742133239061345,-0.019547687622336492,-2227,-422,-558,4154,307,100605
11:53:38.595,20056,-950.1953125,258.7890625,-3.90625,0.24556782575560218,-0.05986479334340551,-0.05742133239061345,-2229,-424,-570,4154,307,100605
11:53:38.616,20057,-958.0078125,252.9296875,-3.90625,0.20402898955813717,-0.04398229715025711,-0.05986479334340551,-2225,-425,-563,4154,307,100605
11:53:38.636,20058,-954.1015625,255.859375,2.9296875,0.16493361431346415,-0.03054326190990077,-0.05742133239061345,-2223,-422,-554,4154,307,100605
11:53:38.657,20059,-944.3359375,255.859375,3.90625,0.11606439525762292,-0.029321531433504737,-0.03543018381548489,-2224,-424,-575,4154,307,100605
11:53:38.667,20060,-949.21875,251.953125,-6.8359375,0.10506882097005865,-0.023212879051524585,-0.03787364476827696,-2228,-424,-572,4154,307,100605
11:53:38.687,20061,-957.03125,250.0,-13.671875,0.0867428638241182,-0.013439035240356337,-0.04398229715025711,-2226,-422,-554,4154,307,100605
11:53:38.707,20062,-955.078125,248.046875,-12.6953125,0.07086036763096978,0.0012217304763960308,-0.026878070480712675,-2222,-425,-556,4154,307,100605
11:53:38.728,20063,-954.1015625,242.1875,-14.6484375,0.0317649923862968,0.007330382858376184,-0.03054326190990077,-2227,-427,-556,4154,307,100605
11:53:38.748,20064,-942.3828125,243.1640625,-18.5546875,0.007330382858376184,0.010995574287564277,-0.03543018381548489,-2222,-420,-556,4154,307,100605
11:53:38.759,20065,-936.5234375,253.90625,-23.4375,-0.019547687622336492,0.003665191429188092,-0.04398229715025711,-2215,-421,-562,4154,307,100605
11:53:38.779,20066,-938.4765625,280.2734375,-26.3671875,0.0024434609527920616,0.009773843811168246,-0.039095375244672985,-2221,-426,-573,4154,307,100605
11:53:38.800,20067,-940.4296875,282.2265625,-26.3671875,0.021991148575128554,0.012217304763960306,0.0024434609527920616,-2224,-425,-563,4154,307,100605
11:53:38.830,20068,-938.4765625,266.6015625,-19.53125,-0.0024434609527920616,0.039095375244672985,0.020769418098732523,-2220,-422,-565,4154,307,100605
11:53:38.851,20069,-938.4765625,266.6015625,-2.9296875,-0.003665191429188092,0.03543018381548489,0.021991148575128554,-2214,-421,-562,4154,307,100605
11:53:38.871,20070,-936.5234375,253.90625,6.8359375,-0.0012217304763960308,0.026878070480712675,0.023212879051524585,-2202,-417,-560,4154,307,100605
11:53:38.892,20071,-934.5703125,253.90625,3.90625,0.007330382858376184,0.01710422666954443,0.025656340004316647,-2224,-424,-566,4154,307,100605
11:53:38.912,20072,-936.5234375,250.9765625,0.9765625,-0.01710422666954443,0.0012217304763960308,0.004886921905584123,-2208,-419,-557,4154,307,100605
11:53:38.923,20073,-942.3828125,255.859375,-11.71875,-0.05742133239061345,-0.003665191429188092,-0.0158824961931484,-2222,-424,-565,4154,307,100605
