Timestamp,SampleNr,AccX [mg],AccY [mg],AccZ [mg],GyrX [rad/s],GyrY [rad/s],GyrZ [rad/s],MagX [mGs],MagY [mGs],-MagZ [mGs],Battery [mV],Temperature [0.1C],Pressure[Pa]
12:14:12.228,4119,125.9765625,644.53125,-746.09375,-0.010995574287564277,-0.04642575810304917,0.013439035240356337,-1714,-483,699,4036,330,100677
12:14:12.238,4120,127.9296875,648.4375,-747.0703125,-0.026878070480712675,-0.03298672286269283,-0.0012217304763960308,-1714,-483,699,4036,330,100677
12:14:12.248,4121,132.8125,661.1328125,-741.2109375,-0.04398229715025711,-0.04276056667386108,-0.006108652381980153,-1714,-483,699,4036,330,100677
12:14:12.269,4122,126.953125,661.1328125,-741.2109375,-0.019547687622336492,-0.04520402762665313,-0.0012217304763960308,-1714,-483,699,4036,330,100677
12:14:12.289,4123,128.90625,661.1328125,-748.046875,-0.024434609527920613,-0.0317649923862968,-0.014660765716752368,-1710,-484,696,4036,330,100677
12:14:12.310,4124,129.8828125,652.34375,-755.859375,-0.04520402762665313,-0.05009094953223726,0.0012217304763960308,-1710,-484,696,4036,330,100677
12:14:12.330,4125,132.8125,654.296875,-750.9765625,-0.024434609527920613,-0.03543018381548489,-0.006108652381980153,-1710,-484,696,4036,330,100677
12:14:12.361,4126,130.859375,636.71875,-745.1171875,0.010995574287564277,-0.02809980095710871,0.006108652381980153,-1710,-484,696,4036,330,100677
12:14:12.382,4127,129.8828125,637.6953125,-749.0234375,-0.010995574287564277,-0.02809980095710871,0.010995574287564277,-1705,-482,702,4036,330,100677
12:14:12.402,4128,130.859375,644.53125,-750.9765625,-0.020769418098732523,-0.03298672286269283,0.008552113334772215,-1705,-482,702,4036,330,100677
12:14:12.413,4129,134.765625,661.1328125,-747.0703125,-0.02809980095710871,-0.024434609527920613,0.003665191429188092,-1705,-482,702,4036,330,100677
12:14:12.433,4130,133.7890625,666.9921875,-744.140625,-0.014660765716752368,-0.01832595714594046,0.0012217304763960308,-1705,-482,702,4036,330,100677
12:14:12.453,4131,132.8125,652.34375,-741.2109375,0.012217304763960306,-0.013439035240356337,-0.0024434609527920616,-1705,-482,702,4036,330,100677
12:14:12.473,4132,127.9296875,649.4140625,-741.2109375,-0.006108652381980153,-0.024434609527920613,0.013439035240356337,-1713,-484,694,4036,330,100677
12:14:12.493,4133,131.8359375,639.6484375,-743.1640625,-0.020769418098732523,-0.008552113334772215,0.004886921905584123,-1713,-484,694,4036,330,100677
12:14:12.504,4134,134.765625,651.3671875,-739.2578125,-0.06475171524898964,-0.025656340004316647,0.0012217304763960308,-1713,-484,694,4036,330,100677
12:14:12.524,4135,134.765625,664.0625,-736.328125,-0.048869219055841226,-0.025656340004316647,0.009773843811168246,-1713,-484,694,4036,330,100677
12:14:12.545,4136,132.8125,656.25,-742.1875,-0.01710422666954443,-0.03298672286269283,0.009773843811168246,-1713,-484,694,4036,330,100677
12:14:12.565,4137,134.765625,658.203125,-730.46875,0.007330382858376184,-0.03787364476827696,0.009773843811168246,-1706,-486,697,4036,330,100677
12:14:12.585,4138,132.8125,644.53125,-737.3046875,0.004886921905584123,-0.03787364476827696,0.008552113334772215,-1706,-486,697,4036,330,100677
12:14:12.595,4139,133.7890625,640.625,-737.3046875,-0.019547687622336492,-0.0476474885794452,0.010995574287564277,-1706,-486,697,4036,330,100677
12:14:12.636,4140,133.7890625,650.390625,-737.3046875,-0.03420845333908886,-0.04398229715025711,0.004886921905584123,-1706,-486,697,4036,330,100677
12:14:12.656,4141,133.7890625,667.96875,-733.3984375,-0.019547687622336492,-0.04276056667386108,0.003665191429188092,-1703,-486,695,4036,330,100677
12:14:12.667,4142,134.765625,659.1796875,-744.140625,0.004886921905584123,-0.05375614096142535,0.008552113334772215,-1703,-486,695,4036,330,100677
12:14:12.688,4143,133.7890625,651.3671875,-750.0,0.004886921905584123,-0.048869219055841226,0.004886921905584123,-1703,-486,695,4036,330,100677
12:14:12.708,4144,131.8359375,649.4140625,-748.046875,-0.009773843811168246,-0.05009094953223726,0.006108652381980153,-1703,-486,695,4036,330,100677
12:14:12.729,4145,131.8359375,657.2265625,-744.140625,-0.019547687622336492,-0.048869219055841226,0.007330382858376184,-1703,-486,695,4036,330,100677
12:14:12.749,4146,134.765625,651.3671875,-744.140625,0.006108652381980153,-0.04153883619746505,0.007330382858376184,-1709,-487,699,4036,330,100677
12:14:12.780,4147,131.8359375,638.671875,-745.1171875,0.0012217304763960308,-0.04520402762665313,0.008552113334772215,-1709,-487,699,4036,330,100677
12:14:12.800,4148,130.859375,647.4609375,-750.0,0.004886921905584123,-0.025656340004316647,0.0,-1709,-487,699,4036,330,100677
12:14:12.821,4149,129.8828125,648.4375,-746.09375,-0.04153883619746505,-0.026878070480712675,0.007330382858376184,-1709,-487,699,4036,330,100677
12:14:12.841,4150,142.578125,662.109375,-745.1171875,-0.01832595714594046,-0.03665191429188092,-0.003665191429188092,-1709,-487,699,4036,330,100677
12:14:12.851,4151,132.8125,660.15625,-737.3046875,0.0024434609527920616,-0.020769418098732523,0.008552113334772215,-1706,-484,705,4036,330,100677
12:14:12.871,4152,130.859375,643.5546875,-744.140625,0.009773843811168246,-0.024434609527920613,0.006108652381980153,-1706,-484,705,4024,331,100678
12:14:12.892,4153,133.7890625,631.8359375,-737.3046875,-0.003665191429188092,-0.024434609527920613,0.008552113334772215,-1706,-484,705,4024,331,100678
12:14:12.912,4154,134.765625,648.4375,-738.28125,-0.014660765716752368,-0.021991148575128554,0.0158824961931484,-1706,-484,705,4024,331,100678
12:14:12.923,4155,134.765625,650.390625,-741.2109375,-0.025656340004316647,-0.01832595714594046,0.0012217304763960308,-1705,-478,700,4024,331,100678
12:14:12.943,4156,137.6953125,651.3671875,-738.28125,-0.007330382858376184,-0.03420845333908886,0.004886921905584123,-1705,-478,700,4024,331,100678
12:14:12.964,4157,135.7421875,659.1796875,-745.1171875,-0.01710422666954443,-0.03787364476827696,-0.003665191429188092,-1705,-478,700,4024,331,100678
12:14:12.985,4158,136.71875,636.71875,-744.140625,-0.026878070480712675,-0.0476474885794452,-0.006108652381980153,-1705,-478,700,4024,331,100678
12:14:12.995,4159,141.6015625,646.484375,-737.3046875,-0.03054326190990077,-0.04642575810304917,0.0024434609527920616,-1705,-478,700,4024,331,100678
12:14:13.16,4160,136.71875,648.4375,-735.3515625,0.0,-0.05497787143782139,0.003665191429188092,-1706,-482,694,4024,331,100678
12:14:13.58,4161,134.765625,639.6484375,-747.0703125,-0.0024434609527920616,-0.06108652381980154,0.01832595714594046,-1706,-482,694,4024,331,100678
12:14:13.79,4162,136.71875,655.2734375,-750.9765625,-0.009773843811168246,-0.05619960191421742,0.020769418098732523,-1706,-482,694,4024,331,100678
12:14:13.89,4163,134.765625,651.3671875,-745.1171875,0.0,-0.06230825429619757,0.021991148575128554,-1706,-482,694,4024,331,100678
12:14:13.110,4164,130.859375,653.3203125,-752.9296875,0.0158824961931484,-0.0671951762017817,0.019547687622336492,-1706,-482,694,4024,331,100678
12:14:13.131,4165,132.8125,631.8359375,-742.1875,0.021991148575128554,-0.0476474885794452,0.0,-1699,-483,696,4024,331,100678
12:14:13.141,4166,133.7890625,638.671875,-737.3046875,-0.008552113334772215,-0.04031710572106901,-0.0012217304763960308,-1699,-483,696,4024,331,100678
12:14:13.162,4167,128.90625,648.4375,-743.1640625,-0.0317649923862968,-0.04031710572106901,-0.008552113334772215,-1699,-483,696,4024,331,100678
12:14:13.203,4168,131.8359375,651.3671875,-752.9296875,-0.07452555906015788,-0.04031710572106901,-0.003665191429188092,-1699,-483,696,4024,331,100678
12:14:13.224,4169,134.765625,656.25,-756.8359375,-0.0830776723949301,-0.03665191429188092,-0.003665191429188092,-1707,-486,700,4024,331,100678
12:14:13.234,4170,137.6953125,654.296875,-750.9765625,-0.051312680008633295,-0.03054326190990077,-0.0012217304763960308,-1707,-486,700,4024,331,100678
12:14:13.255,4171,137.6953125,649.4140625,-748.046875,-0.013439035240356337,-0.03543018381548489,-0.006108652381980153,-1707,-486,700,4024,331,100678
12:14:13.275,4172,130.859375,646.484375,-749.0234375,-0.007330382858376184,-0.0317649923862968,0.0,-1707,-486,700,4024,331,100678
12:14:13.295,4173,133.7890625,641.6015625,-749.0234375,-0.023212879051524585,-0.03054326190990077,0.0,-1707,-486,700,4024,331,100678
12:14:13.306,4174,135.7421875,654.296875,-749.0234375,0.0,-0.04276056667386108,0.007330382858376184,-1708,-486,692,4024,331,100678
12:14:13.326,4175,129.8828125,651.3671875,-750.0,0.004886921905584123,-0.025656340004316647,0.006108652381980153,-1708,-486,692,4024,331,100678
12:14:13.346,4176,133.7890625,653.3203125,-744.140625,0.014660765716752368,-0.03420845333908886,0.012217304763960306,-1708,-486,692,4024,331,100678
12:14:13.367,4177,130.859375,648.4375,-744.140625,0.024434609527920613,-0.04398229715025711,0.01832595714594046,-1708,-486,692,4024,331,100678
12:14:13.387,4178,130.859375,637.6953125,-745.1171875,0.0,-0.04153883619746505,0.019547687622336492,-1708,-486,692,4024,331,100678
12:14:13.397,4179,140.625,639.6484375,-748.046875,-0.0317649923862968,-0.05375614096142535,0.03054326190990077,-1707,-484,697,4024,331,100678
12:14:13.418,4180,143.5546875,641.6015625,-747.0703125,-0.052534410485029326,-0.04153883619746505,0.02809980095710871,-1707,-484,697,4024,331,100678
12:14:13.439,4181,149.4140625,658.203125,-747.0703125,-0.0012217304763960308,-0.021991148575128554,0.02809980095710871,-1707,-484,697,4024,331,100678
12:14:13.459,4182,143.5546875,654.296875,-746.09375,0.01832595714594046,-0.023212879051524585,0.025656340004316647,-1707,-484,697,4024,331,100678
12:14:13.470,4183,139.6484375,646.484375,-752.9296875,0.01710422666954443,-0.01710422666954443,0.029321531433504737,-1708,-487,693,4024,331,100678
12:14:13.490,4184,143.5546875,633.7890625,-743.1640625,0.012217304763960306,-0.019547687622336492,0.020769418098732523,-1708,-487,693,4024,331,100678
12:14:13.511,4185,141.6015625,632.8125,-736.328125,-0.020769418098732523,-0.021991148575128554,0.010995574287564277,-1708,-487,693,4024,331,100678
12:14:13.532,4186,142.578125,632.8125,-741.2109375,-0.052534410485029326,-0.021991148575128554,0.008552113334772215,-1708,-487,693,4024,331,100678
12:14:13.542,4187,145.5078125,637.6953125,-733.3984375,-0.05619960191421742,-0.04031710572106901,0.01832595714594046,-1708,-487,693,4024,331,100678
12:14:13.562,4188,145.5078125,627.9296875,-733.3984375,0.006108652381980153,-0.04031710572106901,0.0,-1704,-484,697,4024,331,100678
12:14:13.583,4189,136.71875,625.0,-736.328125,0.024434609527920613,-0.04398229715025711,0.0024434609527920616,-1704,-484,697,4024,331,100678
12:14:13.604,4190,143.5546875,638.671875,-734.375,0.007330382858376184,-0.07330382858376185,-0.03298672286269283,-1704,-484,697,4024,331,100678
12:14:13.614,4191,139.6484375,630.859375,-723.6328125,-0.010995574287564277,-0.09040805525330627,-0.03054326190990077,-1704,-484,697,4024,331,100678
12:14:13.687,4192,125.9765625,629.8828125,-725.5859375,0.012217304763960306,-0.1233947781159991,-0.04153883619746505,-1704,-484,697,4024,331,100678
12:14:13.707,4193,133.7890625,616.2109375,-730.46875,0.0317649923862968,-0.12583823906879116,-0.0671951762017817,-1703,-489,703,4024,331,100678
12:14:13.727,4194,134.765625,613.28125,-725.5859375,0.03543018381548489,-0.13683381335635544,-0.0671951762017817,-1703,-489,703,4024,331,100678
12:14:13.748,4195,128.90625,625.9765625,-727.5390625,0.04031710572106901,-0.14416419621473164,-0.09040805525330627,-1703,-489,703,4024,331,100678
12:14:13.769,4196,125.0,628.90625,-743.1640625,0.05009094953223726,-0.15760323145508798,-0.10995574287564278,-1703,-489,703,4024,331,100678
12:14:13.779,4197,131.8359375,615.234375,-740.234375,0.052534410485029326,-0.1820378409830086,-0.1270599695451872,-1703,-489,703,4024,331,100678
12:14:13.801,4198,129.8828125,620.1171875,-734.375,0.058643062867009474,-0.20647245051092922,-0.16249015336067207,-1710,-490,705,4024,331,100678
12:14:13.821,4199,118.1640625,616.2109375,-706.0546875,0.1038470904936626,-0.2345722514680379,-0.16126842288427604,-1710,-490,705,4024,331,100678
12:14:13.842,4200,116.2109375,603.515625,-715.8203125,0.10995574287564278,-0.2528982086139784,-0.19303341527057283,-1710,-490,705,4024,331,100678
12:14:13.852,4201,115.234375,595.703125,-712.890625,0.0671951762017817,-0.2736676267127109,-0.20158552860534507,-1710,-490,705,4024,331,100678
12:14:13.873,4202,108.3984375,613.28125,-708.0078125,0.024434609527920613,-0.3103195410045918,-0.21746802479849348,-1720,-497,702,4042,331,100682
12:14:13.894,4203,97.65625,624.0234375,-710.9375,0.08185594191853407,-0.35063664672566086,-0.22602013813326569,-1720,-497,702,4042,331,100682
12:14:13.914,4204,105.46875,600.5859375,-716.796875,0.08796459430051422,-0.37140606482439337,-0.2528982086139784,-1720,-497,702,4042,331,100682
12:14:13.925,4205,88.8671875,603.515625,-705.078125,0.021991148575128554,-0.41172317054546237,-0.26022859147235455,-1720,-497,702,4042,331,100682
12:14:13.965,4206,76.171875,624.0234375,-710.9375,0.0635299847725936,-0.46670104198328377,-0.2614503219487506,-1720,-497,702,4042,331,100682
12:14:13.986,4207,55.6640625,620.1171875,-708.984375,0.16493361431346415,-0.4801400772236401,-0.27733281814189903,-1735,-500,700,4042,331,100682
12:14:13.996,4208,46.875,583.984375,-709.9609375,0.1429424657383356,-0.515570261039125,-0.3090978105281958,-1735,-500,700,4042,331,100682
12:14:14.17,4209,31.25,579.1015625,-739.2578125,0.1075122819228507,-0.5424483315198376,-0.32131511529215606,-1735,-500,700,4042,331,100682
12:14:14.37,4210,29.296875,604.4921875,-722.65625,0.1233947781159991,-0.5913175505756788,-0.33719761148530447,-1735,-500,700,4042,331,100682
12:14:14.57,4211,14.6484375,579.1015625,-710.9375,0.1429424657383356,-0.6120869686744114,-0.36163222101322506,-1735,-500,700,4042,331,100682
12:14:14.78,4212,-19.53125,583.984375,-716.796875,0.15149457907310784,-0.6597344572538566,-0.39828413530510604,-1757,-505,706,4042,331,100682
12:14:14.89,4213,-32.2265625,598.6328125,-713.8671875,0.18570303241219668,-0.7061602153569058,-0.42394047530942264,-1757,-505,706,4042,331,100682
12:14:14.109,4214,-42.96875,541.015625,-715.8203125,0.1392772743091475,-0.7379252077432025,-0.4691445029360758,-1757,-505,706,4042,331,100682
12:14:14.130,4215,-57.6171875,596.6796875,-729.4921875,0.0867428638241182,-0.7672467391767073,-0.4825835381764321,-1757,-505,706,4042,331,100682
12:14:14.150,4216,-83.984375,613.28125,-729.4921875,0.1942551457469689,-0.8307767239493008,-0.4789183467472441,-1785,-517,711,4042,331,100682
12:14:14.160,4217,-127.9296875,559.5703125,-730.46875,0.3530801076784529,-0.8503244115716375,-0.5094616086571448,-1785,-517,711,4042,331,100682
12:14:14.180,4218,-129.8828125,498.046875,-717.7734375,0.29810223624063154,-0.8808676734815382,-0.5497787143782138,-1785,-517,711,4042,331,100682
12:14:14.201,4219,-121.09375,539.0625,-727.5390625,0.07452555906015788,-0.9773843811168247,-0.5962044724812631,-1785,-517,711,4042,331,100682
12:14:14.221,4220,-169.921875,599.609375,-731.4453125,0.04031710572106901,-1.0238101392198737,-0.5632177496185702,-1785,-517,711,4042,331,100682
12:14:14.242,4221,-209.9609375,581.0546875,-726.5625,0.2235766771804736,-1.0238101392198737,-0.5693264020005504,-1822,-527,697,4042,331,100682
12:14:14.253,4222,-250.0,571.2890625,-742.1875,0.41294490102185843,-1.0201449477906857,-0.5839871677173026,-1822,-527,697,4042,331,100682
12:14:14.273,4223,-236.328125,524.4140625,-746.09375,0.4043927876870862,-1.0971139678036357,-0.6279694648675598,-1822,-527,697,4042,331,100682
12:14:14.294,4224,-262.6953125,482.421875,-763.671875,0.3200933848157601,-1.1716395268637936,-0.6548475353482726,-1822,-527,697,4042,331,100682
12:14:14.315,4225,-351.5625,479.4921875,-761.71875,0.1869247628885927,-1.2107349021084666,-0.63407811724954,-1822,-527,697,4042,331,100682
12:14:14.325,4226,-332.03125,583.0078125,-760.7421875,0.475253155318056,-1.1716395268637936,-0.7086036763096979,-1868,-546,681,4042,331,100682
12:14:14.345,4227,-299.8046875,549.8046875,-743.1640625,0.5668829410477583,-1.1887437535333378,-0.6939429105929455,-1868,-546,681,4042,331,100682
12:14:14.366,4228,-331.0546875,429.6875,-692.3828125,0.49968776484597655,-1.2449433554475555,-0.6743952229706089,-1868,-546,681,4042,331,100682
12:14:14.387,4229,-469.7265625,365.234375,-813.4765625,0.2822197400474831,-1.2852604611686242,-0.6670648401122328,-1868,-546,681,4042,331,100682
12:14:14.408,4230,-384.765625,539.0625,-710.9375,0.16982053621904827,-1.2913691135506045,-0.7831292353698558,-1917,-573,663,4042,331,100682
12:14:14.418,4231,-407.2265625,561.5234375,-695.3125,0.3481931857728688,-1.2510520078295355,-0.7611380867947273,-1917,-573,663,4042,331,100682
12:14:14.439,4232,-495.1171875,500.0,-695.3125,0.48869219055841234,-1.2437216249711593,-0.6829473363053812,-1917,-573,663,4042,331,100682
12:14:14.459,4233,-577.1484375,319.3359375,-738.28125,0.5070181477043528,-1.3390166021300498,-0.6352998477259361,-1917,-573,663,4042,331,100682
12:14:14.480,4234,-565.4296875,298.828125,-768.5546875,0.052534410485029326,-1.502728485967118,-0.670730031541421,-1917,-573,663,4042,331,100682
12:14:14.490,4235,-506.8359375,488.28125,-667.96875,0.20891591146372127,-1.4208725440485839,-0.7391469382195985,-1968,-609,633,4042,331,100682
12:14:14.511,4236,-594.7265625,562.5,-643.5546875,0.5387831400906496,-1.336573141177258,-0.6902777191637574,-1968,-609,633,4042,331,100682
12:14:14.532,4237,-626.953125,458.984375,-620.1171875,0.7122688677388859,-1.4220942745249798,-0.6511823439190844,-1968,-609,633,4042,331,100682
12:14:14.552,4238,-683.59375,244.140625,-693.359375,0.5546656362837981,-1.5393804002589986,-0.594982742004867,-1968,-609,633,4042,331,100682
12:14:14.563,4239,-691.40625,350.5859375,-704.1015625,0.38606683054114566,-1.6041321155079884,-0.6365215782023321,-1968,-609,633,4042,331,100682
12:14:14.583,4240,-671.875,454.1015625,-647.4609375,0.5705481324769464,-1.4746286850100092,-0.678060414399797,-2015,-642,596,4042,331,100682
12:14:14.604,4241,-740.234375,447.265625,-628.90625,0.8600982553828056,-1.4062117783318313,-0.631634656296748,-2015,-642,596,4042,331,100682
12:14:14.624,4242,-745.1171875,349.609375,-579.1015625,0.9676105373056564,-1.4941763726323456,-0.5803219762881145,-2015,-642,596,4042,331,100682
12:14:14.635,4243,-787.109375,170.8984375,-662.109375,0.7281513639320344,-1.5601498183577314,-0.5424483315198376,-2015,-642,596,4042,331,100682
12:14:14.655,4244,-742.1875,279.296875,-625.9765625,0.4935791124639964,-1.6065755764607805,-0.5632177496185702,-2055,-673,551,4042,331,100682
12:14:14.675,4245,-768.5546875,358.3984375,-575.1953125,0.4324925886441948,-1.5039502164435137,-0.5400048705670456,-2055,-673,551,4042,331,100682
12:14:14.696,4246,-778.3203125,383.7890625,-530.2734375,0.7379252077432025,-1.3952162040442673,-0.519235452468313,-2055,-673,551,4042,331,100682
12:14:14.717,4247,-838.8671875,262.6953125,-448.2421875,0.7953465401338161,-1.4514158059584847,-0.4618141200776996,-2055,-673,551,4042,331,100682
12:14:14.727,4248,-930.6640625,58.59375,-553.7109375,0.516791991515521,-1.5186109821602662,-0.4202752838802346,-2055,-673,551,4042,331,100682
12:14:14.747,4249,-953.125,176.7578125,-551.7578125,0.35185837720205687,-1.587027888838444,-0.4153883619746504,-2080,-705,498,4042,331,100682
12:14:14.768,4250,-952.1484375,248.046875,-506.8359375,0.41905355340383854,-1.5369369393062067,-0.4850269991292242,-2080,-705,498,4042,331,100682
12:14:14.789,4251,-895.5078125,221.6796875,-436.5234375,0.49113565151120436,-1.507615407872702,-0.5021312257987687,-2080,-705,498,4042,331,100682
12:14:14.809,4252,-912.109375,200.1953125,-395.5078125,0.41294490102185843,-1.5320500174006226,-0.4801400772236401,-2080,-705,498,4030,331,100680
12:14:14.820,4253,-984.375,146.484375,-404.296875,0.35552356863124496,-1.5540411659757511,-0.4276056667386108,-2080,-705,498,4030,331,100680
12:14:14.841,4254,-1060.546875,185.546875,-425.78125,0.3628539514896212,-1.507615407872702,-0.42516220578581876,-2111,-735,441,4030,331,100680
12:14:14.872,4255,-991.2109375,176.7578125,-431.640625,0.6230825429619757,-1.3805554383275147,-0.4447098934081552,-2111,-735,441,4030,331,100680
12:14:14.893,4256,-961.9140625,101.5625,-438.4765625,0.7122688677388859,-1.2791518087866443,-0.3726277953007894,-2111,-735,441,4030,331,100680
12:14:14.913,4257,-937.5,100.5859375,-422.8515625,0.41416663149825445,-1.196074136391714,-0.31642819338657197,-2111,-735,441,4030,331,100680
12:14:14.934,4258,-965.8203125,136.71875,-363.28125,0.11606439525762292,-1.1288789601899325,-0.2956587752878394,-2123,-758,383,4030,331,100680
12:14:14.955,4259,-1024.4140625,151.3671875,-320.3125,0.01710422666954443,-1.0433578268422103,-0.26389378290154264,-2123,-758,383,4030,331,100680
12:14:14.965,4260,-1059.5703125,123.046875,-323.2421875,0.04276056667386108,-0.9871582249279928,-0.20525072003453318,-2123,-758,383,4030,331,100680
12:14:14.985,4261,-1048.828125,93.75,-349.609375,0.09407324668249437,-0.8881980563399144,-0.197920337176157,-2123,-758,383,4030,331,100680
12:14:15.26,4262,-1012.6953125,112.3046875,-335.9375,0.09407324668249437,-0.8222246106145287,-0.18814649336498873,-2123,-758,383,4030,331,100680
12:14:15.37,4263,-988.28125,122.0703125,-307.6171875,0.0867428638241182,-0.7977900010866079,-0.19181168479417682,-2122,-771,337,4030,331,100680
12:14:15.57,4264,-959.9609375,142.578125,-287.109375,0.18081611050661253,-0.751364242983559,-0.17959438003021652,-2122,-771,337,4030,331,100680
12:14:15.77,4265,-955.078125,147.4609375,-257.8125,0.35674529910764097,-0.6914994496401534,-0.1710422666954443,-2122,-771,337,4030,331,100680
12:14:15.98,4266,-974.609375,112.3046875,-221.6796875,0.41416663149825445,-0.6365215782023321,-0.18325957145940464,-2122,-771,337,4030,331,100680
12:14:15.118,4267,-982.421875,109.375,-203.125,0.39828413530510604,-0.5681046715241543,-0.18814649336498873,-2122,-771,337,4030,331,100680
12:14:15.128,4268,-973.6328125,82.03125,-181.640625,0.36163222101322506,-0.5119050696099369,-0.19303341527057283,-2121,-778,313,4030,331,100680
12:14:15.149,4269,-980.46875,10.7421875,-131.8359375,0.18448130193580062,-0.4300491276914028,-0.20891591146372127,-2121,-778,313,4030,331,100680
12:14:15.169,4270,-1000.0,25.390625,-147.4609375,0.026878070480712675,-0.37140606482439337,-0.2528982086139784,-2121,-778,313,4030,331,100680
12:14:15.189,4271,-1000.9765625,47.8515625,-147.4609375,-0.09773843811168245,-0.3139847324337799,-0.26267205242514663,-2121,-778,313,4030,331,100680
12:14:15.210,4272,-997.0703125,57.6171875,-166.9921875,-0.09651670763528641,-0.2822197400474831,-0.21991148575128555,-2118,-783,286,4030,331,100680
12:14:15.220,4273,-1015.625,43.9453125,-176.7578125,-0.05009094953223726,-0.2541199390903744,-0.16249015336067207,-2118,-783,286,4030,331,100680
12:14:15.241,4274,-1016.6015625,19.53125,-186.5234375,-0.01832595714594046,-0.21746802479849348,-0.12583823906879116,-2118,-783,286,4030,331,100680
12:14:15.261,4275,-1023.4375,27.34375,-169.921875,0.024434609527920613,-0.18081611050661253,-0.1075122819228507,-2118,-783,286,4030,331,100680
12:14:15.302,4276,-1012.6953125,44.921875,-160.15625,0.03543018381548489,-0.13194689145077132,-0.07819075048934597,-2118,-783,286,4030,331,100680
12:14:15.312,4277,-1012.6953125,36.1328125,-126.953125,0.08552113334772216,-0.0952949771588904,-0.04642575810304917,-2115,-791,278,4030,331,100680
12:14:15.333,4278,-1002.9296875,43.9453125,-120.1171875,0.09407324668249437,-0.07452555906015788,-0.019547687622336492,-2115,-791,278,4030,331,100680
12:14:15.354,4279,-992.1875,68.359375,-113.28125,0.13194689145077132,-0.05497787143782139,0.008552113334772215,-2115,-791,278,4030,331,100680
12:14:15.374,4280,-997.0703125,68.359375,-99.609375,0.14538592669112765,-0.07086036763096978,0.029321531433504737,-2115,-791,278,4030,331,100680
12:14:15.384,4281,-992.1875,52.734375,-119.140625,0.2162462943220974,-0.04642575810304917,0.048869219055841226,-2115,-791,278,4030,331,100680
12:14:15.405,4282,-984.375,43.9453125,-124.0234375,0.24434609527920617,-0.039095375244672985,0.06475171524898964,-2117,-792,271,4030,331,100680
12:14:15.446,4283,-994.140625,26.3671875,-89.84375,0.2113593724165133,-0.019547687622336492,0.0635299847725936,-2117,-792,271,4030,331,100680
12:14:15.456,4284,-993.1640625,41.015625,-81.0546875,0.14538592669112765,-0.03298672286269283,0.0476474885794452,-2117,-792,271,4030,331,100680
12:14:15.477,4285,-980.46875,62.5,-85.9375,0.13316862192716736,-0.014660765716752368,0.05009094953223726,-2117,-792,271,4030,331,100680
12:14:15.498,4286,-985.3515625,73.2421875,-89.84375,0.17226399717184035,-0.010995574287564277,0.05742133239061345,-2119,-790,267,4030,331,100680
12:14:15.518,4287,-987.3046875,54.6875,-100.5859375,0.2101376419401173,-0.023212879051524585,0.05375614096142535,-2119,-790,267,4030,331,100680
12:14:15.570,4288,-989.2578125,43.9453125,-99.609375,0.17837264955382048,-0.023212879051524585,0.05375614096142535,-2119,-790,267,4030,331,100680
12:14:15.590,4289,-985.3515625,29.296875,-96.6796875,0.1270599695451872,-0.023212879051524585,0.0476474885794452,-2119,-790,267,4030,331,100680
12:14:15.610,4290,-988.28125,30.2734375,-102.5390625,0.09773843811168245,-0.01832595714594046,0.023212879051524585,-2119,-790,267,4030,331,100680
12:14:15.620,4291,-989.2578125,38.0859375,-92.7734375,0.07208209810736582,-0.03543018381548489,0.01832595714594046,-2116,-790,277,4030,331,100680
12:14:15.641,4292,-986.328125,46.875,-92.7734375,0.0989601685880785,-0.0317649923862968,0.013439035240356337,-2116,-790,277,4030,331,100680
12:14:15.661,4293,-982.421875,28.3203125,-80.078125,0.0671951762017817,-0.04398229715025711,0.010995574287564277,-2116,-790,277,4030,331,100680
12:14:15.681,4294,-984.375,24.4140625,-94.7265625,0.0012217304763960308,-0.03665191429188092,0.0,-2116,-790,277,4030,331,100680
12:14:15.702,4295,-976.5625,30.2734375,-109.375,-0.04031710572106901,-0.0317649923862968,-0.004886921905584123,-2116,-790,277,4030,331,100680
12:14:15.712,4296,-979.4921875,41.9921875,-109.375,-0.08063421144213802,-0.04520402762665313,0.0,-2116,-788,265,4030,331,100680
12:14:15.732,4297,-979.4921875,45.8984375,-109.375,-0.06475171524898964,-0.03054326190990077,0.0,-2116,-788,265,4030,331,100680
12:14:15.753,4298,-990.234375,41.015625,-110.3515625,-0.03665191429188092,-0.04031710572106901,0.010995574287564277,-2116,-788,265,4030,331,100680
12:14:15.773,4299,-990.234375,32.2265625,-115.234375,-0.03665191429188092,-0.04642575810304917,0.012217304763960306,-2116,-788,265,4030,331,100680
12:14:15.794,4300,-993.1640625,38.0859375,-116.2109375,-0.04276056667386108,-0.05986479334340551,0.0,-2116,-788,265,4030,331,100680
12:14:15.804,4301,-992.1875,46.875,-103.515625,-0.06841690667817772,-0.04276056667386108,-0.006108652381980153,-2119,-792,265,4030,331,100680
12:14:15.824,4302,-990.234375,51.7578125,-103.515625,-0.07941248096574201,-0.052534410485029326,0.006108652381980153,-2119,-792,265,4030,331,100684
12:14:15.844,4303,-991.2109375,57.6171875,-108.3984375,-0.0671951762017817,-0.04520402762665313,0.003665191429188092,-2119,-792,265,4030,331,100684
12:14:15.865,4304,-988.28125,46.875,-112.3046875,-0.04520402762665313,-0.0476474885794452,0.003665191429188092,-2119,-792,265,4030,331,100684
12:14:15.876,4305,-990.234375,47.8515625,-123.046875,-0.04642575810304917,-0.04398229715025711,0.003665191429188092,-2121,-790,261,4030,331,100684
12:14:15.896,4306,-987.3046875,44.921875,-114.2578125,-0.039095375244672985,-0.06230825429619757,0.020769418098732523,-2121,-790,261,4030,331,100684
12:14:15.917,4307,-983.3984375,44.921875,-88.8671875,-0.03420845333908886,-0.04520402762665313,0.029321531433504737,-2121,-790,261,4030,331,100684
12:14:15.938,4308,-993.1640625,47.8515625,-95.703125,-0.0671951762017817,-0.05009094953223726,0.013439035240356337,-2121,-790,261,4030,331,100684
12:14:15.959,4309,-985.3515625,53.7109375,-105.46875,-0.07574728953655392,-0.052534410485029326,0.026878070480712675,-2121,-790,261,4030,331,100684
12:14:15.969,4310,-981.4453125,64.453125,-110.3515625,-0.058643062867009474,-0.058643062867009474,0.010995574287564277,-2117,-789,282,4030,331,100684
12:14:15.990,4311,-989.2578125,61.5234375,-114.2578125,-0.029321531433504737,-0.04520402762665313,0.010995574287564277,-2117,-789,282,4030,331,100684
12:14:16.11,4312,-988.28125,55.6640625,-111.328125,-0.009773843811168246,-0.051312680008633295,0.01710422666954443,-2117,-789,282,4030,331,100684
12:14:16.32,4313,-992.1875,56.640625,-103.515625,-0.0024434609527920616,-0.058643062867009474,0.020769418098732523,-2117,-789,282,4030,331,100684
12:14:16.42,4314,-990.234375,54.6875,-103.515625,0.009773843811168246,-0.058643062867009474,0.013439035240356337,-2117,-789,282,4030,331,100684
12:14:16.62,4315,-993.1640625,57.6171875,-103.515625,0.019547687622336492,-0.058643062867009474,0.006108652381980153,-2118,-788,273,4030,331,100684
12:14:16.82,4316,-991.2109375,57.6171875,-99.609375,0.01710422666954443,-0.05497787143782139,0.0,-2118,-788,273,4030,331,100684
12:14:16.103,4317,-988.28125,53.7109375,-102.5390625,0.014660765716752368,-0.06230825429619757,-0.007330382858376184,-2118,-788,273,4030,331,100684
12:14:16.133,4318,-988.28125,47.8515625,-109.375,0.0476474885794452,-0.05986479334340551,-0.003665191429188092,-2118,-788,273,4030,331,100684
12:14:16.153,4319,-988.28125,44.921875,-112.3046875,0.04153883619746505,-0.06475171524898964,0.0,-2122,-789,273,4030,331,100684
12:14:16.174,4320,-984.375,46.875,-99.609375,0.02809980095710871,-0.058643062867009474,0.003665191429188092,-2122,-789,273,4030,331,100684
12:14:16.194,4321,-983.3984375,48.828125,-96.6796875,0.0317649923862968,-0.04153883619746505,-0.01710422666954443,-2122,-789,273,4030,331,100684
12:14:16.204,4322,-986.328125,53.7109375,-103.515625,0.03665191429188092,-0.0476474885794452,-0.004886921905584123,-2122,-789,273,4030,331,100684
12:14:16.225,4323,-994.140625,48.828125,-101.5625,0.025656340004316647,-0.04520402762665313,0.006108652381980153,-2122,-789,273,4030,331,100684
12:14:16.245,4324,-994.140625,40.0390625,-108.3984375,0.003665191429188092,-0.03787364476827696,0.007330382858376184,-2121,-791,265,4030,331,100684
12:14:16.286,4325,-994.140625,29.296875,-112.3046875,0.010995574287564277,-0.04153883619746505,0.010995574287564277,-2121,-791,265,4030,331,100684
12:14:16.296,4326,-998.046875,44.921875,-113.28125,0.010995574287564277,-0.024434609527920613,0.0012217304763960308,-2121,-791,265,4030,331,100684
12:14:16.317,4327,-993.1640625,41.9921875,-93.75,-0.019547687622336492,-0.03420845333908886,-0.004886921905584123,-2121,-791,265,4030,331,100684
12:14:16.338,4328,-993.1640625,41.9921875,-101.5625,-0.02809980095710871,-0.026878070480712675,0.023212879051524585,-2121,-791,265,4030,331,100684
12:14:16.358,4329,-994.140625,38.0859375,-105.46875,-0.007330382858376184,-0.021991148575128554,0.0158824961931484,-2117,-789,268,4030,331,100684
12:14:16.369,4330,-989.2578125,44.921875,-111.328125,-0.024434609527920613,-0.03298672286269283,0.0012217304763960308,-2117,-789,268,4030,331,100684
12:14:16.389,4331,-984.375,61.5234375,-100.5859375,-0.024434609527920613,-0.02809980095710871,0.004886921905584123,-2117,-789,268,4030,331,100684
12:14:16.410,4332,-987.3046875,51.7578125,-101.5625,-0.003665191429188092,-0.0317649923862968,0.0158824961931484,-2117,-789,268,4030,331,100684
12:14:16.430,4333,-989.2578125,44.921875,-108.3984375,0.007330382858376184,-0.0317649923862968,0.012217304763960306,-2108,-789,277,4030,331,100684
12:14:16.451,4334,-981.4453125,51.7578125,-105.46875,0.007330382858376184,-0.023212879051524585,0.0024434609527920616,-2108,-789,277,4030,331,100684
12:14:16.461,4335,-982.421875,56.640625,-101.5625,-0.003665191429188092,-0.03665191429188092,0.0012217304763960308,-2108,-789,277,4030,331,100684
12:14:16.554,4336,-993.1640625,40.0390625,-105.46875,0.03787364476827696,-0.02809980095710871,0.012217304763960306,-2108,-789,277,4030,331,100684
12:14:16.574,4337,-992.1875,34.1796875,-106.4453125,0.021991148575128554,-0.0317649923862968,0.010995574287564277,-2108,-789,277,4030,331,100684
12:14:16.595,4338,-986.328125,50.78125,-100.5859375,-0.007330382858376184,-0.04642575810304917,-0.0024434609527920616,-2123,-787,271,4030,331,100684
12:14:16.615,4339,-994.140625,48.828125,-95.703125,-0.008552113334772215,-0.051312680008633295,-0.013439035240356337,-2123,-787,271,4030,331,100684
12:14:16.625,4340,-997.0703125,47.8515625,-93.75,0.0158824961931484,-0.048869219055841226,-0.024434609527920613,-2123,-787,271,4030,331,100684
12:14:16.646,4341,-986.328125,40.0390625,-109.375,0.024434609527920613,-0.03665191429188092,-0.026878070480712675,-2123,-787,271,4030,331,100684
12:14:16.666,4342,-976.5625,36.1328125,-109.375,-0.009773843811168246,-0.051312680008633295,-0.020769418098732523,-2123,-787,271,4030,331,100684
12:14:16.686,4343,-977.5390625,42.96875,-104.4921875,-0.012217304763960306,-0.04520402762665313,-0.021991148575128554,-2122,-789,263,4030,331,100684
12:14:16.696,4344,-979.4921875,42.96875,-102.5390625,-0.012217304763960306,-0.0476474885794452,-0.021991148575128554,-2122,-789,263,4030,331,100684
12:14:16.717,4345,-979.4921875,44.921875,-99.609375,-0.023212879051524585,-0.048869219055841226,-0.029321531433504737,-2122,-789,263,4030,331,100684
12:14:16.779,4346,-981.4453125,41.015625,-106.4453125,-0.025656340004316647,-0.023212879051524585,-0.014660765716752368,-2122,-789,263,4030,331,100684
12:14:16.789,4347,-992.1875,34.1796875,-122.0703125,-0.03298672286269283,-0.003665191429188092,-0.009773843811168246,-2117,-789,266,4030,331,100684
12:14:16.810,4348,-995.1171875,7.8125,-127.9296875,-0.052534410485029326,0.020769418098732523,0.009773843811168246,-2117,-789,266,4030,331,100684
12:14:16.831,4349,-995.1171875,-0.9765625,-143.5546875,-0.01710422666954443,0.04276056667386108,0.025656340004316647,-2117,-789,266,4030,331,100684
12:14:16.851,4350,-1016.6015625,25.390625,-164.0625,0.06108652381980154,0.04153883619746505,0.05619960191421742,-2117,-789,266,4030,331,100684
12:14:16.862,4351,-1030.2734375,42.96875,-192.3828125,0.2345722514680379,0.14172073526193957,0.07330382858376185,-2117,-789,266,4030,331,100684
12:14:16.882,4352,-1034.1796875,55.6640625,-252.9296875,0.40927970959267035,0.25656340004316647,0.10140362954087055,-2120,-788,279,4042,331,100687
12:14:16.903,4353,-1041.9921875,76.171875,-235.3515625,0.5424483315198376,0.28344147052387914,0.20647245051092922,-2120,-788,279,4042,331,100687
12:14:16.923,4354,-1051.7578125,84.9609375,-222.65625,0.7012732934513217,0.3420845333908886,0.3335324200561164,-2120,-788,279,4042,331,100687
12:14:16.944,4355,-1045.8984375,47.8515625,-237.3046875,0.5876523591464908,0.4300491276914028,0.4276056667386108,-2120,-788,279,4042,331,100687
12:14:16.954,4356,-1056.640625,100.5859375,-241.2109375,0.5057964172279568,0.4960225734167885,0.4825835381764321,-2120,-788,279,4042,331,100687
12:14:16.975,4357,-1041.9921875,156.25,-242.1875,0.395840674352314,0.5400048705670456,0.553443905807402,-2120,-778,267,4042,331,100687
12:14:16.996,4358,-1050.78125,176.7578125,-266.6015625,0.3029891581462157,0.594982742004867,0.6218608124855797,-2120,-778,267,4042,331,100687
12:14:17.16,4359,-1010.7421875,205.078125,-285.15625,0.2651155133779387,0.6267477343911638,0.6976081020221336,-2120,-778,267,4042,331,100687
12:14:17.27,4360,-978.515625,272.4609375,-316.40625,0.3799581781591656,0.675616953447005,0.7977900010866079,-2120,-778,267,4042,331,100687
12:14:17.47,4361,-1007.8125,324.21875,-313.4765625,0.49113565151120436,0.55100044485461,0.9260717011081913,-2124,-755,311,4042,331,100687
12:14:17.68,4362,-1015.625,376.953125,-313.4765625,0.560774288665778,0.6414085001079162,1.1704177963873974,-2124,-755,311,4042,331,100687
12:14:17.89,4363,-1083.0078125,398.4375,-293.9453125,0.8038986534685881,0.45081854579013536,1.2266173983016149,-2124,-755,311,4042,331,100687
12:14:17.99,4364,-947.265625,470.703125,-280.2734375,0.7403686686959947,0.6487388829662923,1.633453646941493,-2124,-755,311,4042,331,100687
12:14:17.120,4365,-947.265625,452.1484375,-271.484375,0.950506310636112,0.631634656296748,1.822821870782878,-2124,-755,311,4042,331,100687
12:14:17.140,4366,-952.1484375,418.9453125,-307.6171875,0.915076126820627,0.7354817467904105,2.0488420089161434,-2129,-709,329,4042,331,100687
12:14:17.161,4367,-948.2421875,441.40625,-303.7109375,0.8649851772883896,0.7977900010866079,2.244318885139508,-2129,-709,329,4042,331,100687
12:14:17.181,4368,-939.453125,489.2578125,-328.125,0.8772024820523501,0.8686503687175778,2.414139421358557,-2129,-709,329,4042,331,100687
12:14:17.191,4369,-891.6015625,514.6484375,-317.3828125,0.8564330639536176,0.9688322677820524,2.5497515042385164,-2129,-709,329,4042,331,100687
12:14:17.212,4370,-878.90625,521.484375,-367.1875,0.678060414399797,1.0812314716104872,2.637716098539031,-2129,-709,329,4042,331,100687
12:14:17.232,4371,-839.84375,592.7734375,-347.65625,0.6536258048718764,1.071457627799319,2.7440066499854856,-2121,-630,356,4042,331,100687
12:14:17.253,4372,-778.3203125,602.5390625,-332.03125,0.6072000467688273,1.116661655425972,2.737897997603505,-2121,-630,356,4042,331,100687
12:14:17.263,4373,-766.6015625,629.8828125,-367.1875,0.5742133239061344,1.02503186969627,2.7183503099811688,-2121,-630,356,4042,331,100687
12:14:17.284,4374,-713.8671875,634.765625,-381.8359375,0.5057964172279568,1.0201449477906857,2.6780332042600996,-2121,-630,356,4042,331,100687
12:14:17.305,4375,-667.96875,669.921875,-424.8046875,0.5106833391335408,0.9871582249279928,2.6499334033029904,-2081,-527,408,4042,331,100687
12:14:17.325,4376,-625.0,693.359375,-406.25,0.4862487296056202,0.9321803534901714,2.6145032194875055,-2081,-527,408,4042,331,100687
12:14:17.336,4377,-627.9296875,678.7109375,-433.59375,0.4557054676957195,0.8075638448977764,2.5216517032814076,-2081,-527,408,4042,331,100687
12:14:17.356,4378,-571.2890625,698.2421875,-470.703125,0.4801400772236401,0.753807703936351,2.4471261442212495,-2081,-527,408,4042,331,100687
12:14:17.377,4379,-510.7421875,696.2890625,-475.5859375,0.477696616270848,0.668286570588629,2.3481659756331714,-2081,-527,408,4042,331,100687
12:14:17.397,4380,-482.421875,703.125,-478.515625,0.48747046008201633,0.5900958200992829,2.258979650856261,-2018,-437,440,4042,331,100687
12:14:17.418,4381,-473.6328125,723.6328125,-482.421875,0.5070181477043528,0.5375614096142536,2.147802177504222,-2018,-437,440,4042,331,100687
12:14:17.428,4382,-458.984375,756.8359375,-502.9296875,0.55100044485461,0.5033529562751646,2.0415116260577673,-2018,-437,440,4042,331,100687
12:14:17.448,4383,-415.0390625,750.9765625,-505.859375,0.555887366760194,0.4288273972150068,1.9437731879460847,-2018,-437,440,4042,331,100687
12:14:17.469,4384,-376.953125,761.71875,-515.625,0.5595525581893821,0.3640756819660172,1.8289305231648578,-2018,-437,440,4042,331,100687
12:14:17.490,4385,-344.7265625,780.2734375,-520.5078125,0.6133086991508074,0.24801128670839426,1.7018705536196708,-1948,-381,476,4042,331,100687
12:14:17.500,4386,-314.453125,777.34375,-550.78125,0.6927211801165495,0.16371188383706814,1.5821409669328599,-1948,-381,476,4042,331,100687
12:14:17.520,4387,-305.6640625,792.96875,-548.828125,0.8014551925157961,0.05986479334340551,1.4770721459628011,-1948,-381,476,4042,331,100687
12:14:17.665,4388,-303.7109375,792.96875,-545.8984375,0.8515461420480335,-0.04642575810304917,1.3891075516622868,-1948,-381,476,4042,331,100687
12:14:17.685,4389,-288.0859375,738.28125,-563.4765625,0.6524040743954804,-0.1429424657383356,1.341460063082842,-1948,-381,476,4042,331,100687
12:14:17.706,4390,-250.9765625,654.296875,-625.9765625,0.5094616086571448,-0.08185594191853407,1.2730431564046643,-1889,-349,492,4042,331,100687
12:14:17.727,4391,-258.7890625,665.0390625,-646.484375,0.6059783162924314,-0.16126842288427604,1.2461650859239515,-1889,-349,492,4042,331,100687
12:14:17.737,4392,-261.71875,726.5625,-612.3046875,0.7525859734599549,-0.2186897552748895,1.2461650859239515,-1889,-349,492,4042,331,100687
12:14:17.757,4393,-250.0,810.546875,-599.609375,0.8515461420480335,-0.2687807048071268,1.1753047182929817,-1889,-349,492,4042,331,100687
12:14:17.779,4394,-242.1875,707.03125,-570.3125,0.24801128670839426,-0.35185837720205687,1.2559389297351196,-1852,-334,519,4042,331,100687
12:14:17.799,4395,-192.3828125,463.8671875,-572.265625,0.17715091907742447,-0.2724458962363148,1.0946705068508435,-1852,-334,519,4042,331,100687
12:14:17.809,4396,-236.328125,569.3359375,-635.7421875,0.5705481324769464,-0.21746802479849348,1.0458012877950025,-1852,-334,519,4042,331,100687
12:14:17.830,4397,-259.765625,686.5234375,-680.6640625,0.5852088981936987,-0.15393804002589986,1.2400564335419713,-1852,-334,519,4042,331,100687
12:14:17.850,4398,-266.6015625,778.3203125,-667.96875,0.4471533543609472,-0.15393804002589986,1.3255775668896934,-1852,-334,519,4042,331,100687
12:14:17.870,4399,-180.6640625,741.2109375,-779.296875,0.24556782575560218,-0.06108652381980154,1.263269312593496,-1811,-328,539,4042,331,100687
12:14:17.891,4400,-116.2109375,619.140625,-843.75,0.03787364476827696,-0.1307251609743753,1.1655308744818131,-1811,-328,539,4042,331,100687
12:14:17.901,4401,-84.9609375,601.5625,-840.8203125,0.3811799086355616,-0.09651670763528641,1.0873401239924674,-1811,-328,539,4042,331,100687
12:14:17.922,4402,-118.1640625,671.875,-780.2734375,0.6267477343911638,-0.14172073526193957,1.145983186859477,-1811,-328,539,4042,331,100682
12:14:17.942,4403,-120.1171875,687.5,-743.1640625,0.8552113334772216,-0.09773843811168245,1.1484266478122689,-1811,-328,539,4042,331,100682
12:14:17.963,4404,-113.28125,617.1875,-779.296875,1.0616837839881508,-0.0867428638241182,1.0800097411340912,-1773,-314,538,4042,331,100682
12:14:17.984,4405,-98.6328125,466.796875,-803.7109375,1.0995574287564276,-0.07574728953655392,0.9456193887305279,-1773,-314,538,4042,331,100682
12:14:17.994,4406,-97.65625,286.1328125,-834.9609375,1.0262536001726659,-0.009773843811168246,0.7648032782239153,-1773,-314,538,4042,331,100682
12:14:18.14,4407,-102.5390625,219.7265625,-911.1328125,0.7379252077432025,0.15638150097869194,0.5387831400906496,-1773,-314,538,4042,331,100682
12:14:18.35,4408,-97.65625,121.09375,-817.3828125,0.33475415053251245,0.2138028333693054,0.197920337176157,-1746,-321,569,4042,331,100682
12:14:18.56,4409,-117.1875,56.640625,-723.6328125,0.35796702958403703,0.14172073526193957,-0.0158824961931484,-1746,-321,569,4042,331,100682
12:14:18.66,4410,-163.0859375,58.59375,-750.9765625,0.31764992386296803,0.1111774733520388,-0.15882496193148402,-1746,-321,569,4042,331,100682
12:14:18.87,4411,-152.34375,48.828125,-739.2578125,0.2687807048071268,0.12583823906879116,-0.29688050576423547,-1746,-321,569,4042,331,100682
12:14:18.107,4412,-137.6953125,58.59375,-758.7890625,0.1111774733520388,0.12950343049797927,-0.4948008429403924,-1746,-321,569,4042,331,100682
12:14:18.129,4413,-138.671875,134.765625,-771.484375,-0.0830776723949301,0.12828170002158323,-0.6304129258203519,-1728,-328,584,4042,331,100682
12:14:18.139,4414,-133.7890625,231.4453125,-760.7421875,-0.21991148575128555,0.1270599695451872,-0.8124507668033605,-1728,-328,584,4042,331,100682
12:14:18.160,4415,-147.4609375,283.203125,-708.984375,-0.4227187448330266,0.05742133239061345,-0.9834930334988048,-1728,-328,584,4042,331,100682
12:14:18.181,4416,-160.15625,321.2890625,-675.78125,-0.6572909963010646,0.05497787143782139,-1.233947781159991,-1728,-328,584,4042,331,100682
12:14:18.201,4417,-166.9921875,388.671875,-694.3359375,-0.8136724972797564,0.023212879051524585,-1.3634512116579702,-1728,-328,584,4042,331,100682
12:14:18.211,4418,-139.6484375,432.6171875,-692.3828125,-0.8906415172927065,-0.020769418098732523,-1.4208725440485839,-1743,-336,589,4042,331,100682
12:14:18.232,4419,-174.8046875,476.5625,-748.046875,-0.9688322677820524,0.03787364476827696,-1.4355333097653364,-1743,-336,589,4042,331,100682
12:14:18.252,4420,-156.25,582.03125,-700.1953125,-0.993266877309973,0.16737707526625623,-1.3805554383275147,-1743,-336,589,4042,331,100682
12:14:18.273,4421,-150.390625,682.6171875,-662.109375,-0.8381071068076771,0.2504547476611863,-1.347568715464822,-1743,-336,589,4042,331,100682
12:14:18.283,4422,-172.8515625,791.015625,-717.7734375,-0.7892378877518359,0.30543261909900765,-1.3707815945163466,-1783,-333,575,4042,331,100682
12:14:18.303,4423,-142.578125,904.296875,-758.7890625,-0.6438519610607082,0.33719761148530447,-1.3219123754605053,-1783,-333,575,4042,331,100682
12:14:18.323,4424,-111.328125,981.4453125,-730.46875,-0.6352998477259361,0.2956587752878394,-1.147204917335873,-1783,-333,575,4042,331,100682
12:14:18.344,4425,-101.5625,1063.4765625,-757.8125,-0.7073819458333017,0.3066543495754037,-1.033583983031042,-1783,-333,575,4042,331,100682
12:14:18.364,4426,-59.5703125,1079.1015625,-782.2265625,-0.7342600163140146,0.27977627909469105,-0.8979719001510825,-1783,-333,575,4042,331,100682
12:14:18.374,4427,-22.4609375,1072.265625,-819.3359375,-0.7660250087003113,0.3530801076784529,-0.7635815477475193,-1817,-333,546,4042,331,100682
12:14:18.395,4428,-15.625,1015.625,-776.3671875,-0.833220184902093,0.39828413530510604,-0.5424483315198376,-1817,-333,546,4042,331,100682
12:14:18.415,4429,-35.15625,1033.203125,-700.1953125,-0.594982742004867,0.2553416695667704,-0.42394047530942264,-1817,-333,546,4042,331,100682
12:14:18.436,4430,-19.53125,1000.0,-721.6796875,-0.3897320219703338,0.2076941809873252,-0.34330626386728463,-1817,-333,546,4042,331,100682
12:14:18.456,4431,-24.4140625,858.3984375,-738.28125,-0.2467895562319982,0.1734857276482364,-0.26389378290154264,-1817,-333,546,4042,331,100682
12:14:18.466,4432,-45.8984375,798.828125,-675.78125,-0.07452555906015788,0.18081611050661253,-0.1905899543177808,-1830,-329,538,4042,331,100682
12:14:18.486,4433,-59.5703125,789.0625,-665.0390625,0.021991148575128554,0.14172073526193957,-0.1478293876439197,-1830,-329,538,4042,331,100682
12:14:18.507,4434,-76.171875,764.6484375,-662.109375,0.07208209810736582,0.10629055144645469,-0.14049900478554353,-1830,-329,538,4042,331,100682
12:14:18.527,4435,-90.8203125,722.65625,-652.34375,0.03054326190990077,0.0952949771588904,-0.14049900478554353,-1830,-329,538,4042,331,100682
12:14:18.547,4436,-110.3515625,661.1328125,-664.0625,-0.01710422666954443,0.08552113334772216,-0.11972958668681102,-1839,-337,539,4042,331,100682
12:14:18.557,4437,-125.0,638.671875,-673.828125,0.024434609527920613,0.08552113334772216,-0.11728612573401895,-1839,-337,539,4042,331,100682
12:14:18.577,4438,-139.6484375,609.375,-660.15625,-0.0024434609527920616,0.058643062867009474,-0.11239920382843484,-1839,-337,539,4042,331,100682
12:14:18.597,4439,-167.96875,589.84375,-675.78125,-0.03665191429188092,0.07819075048934597,-0.1661553447898602,-1839,-337,539,4042,331,100682
12:14:18.618,4440,-206.0546875,566.40625,-728.515625,-0.05986479334340551,0.12095131716320705,-0.22479840765686968,-1839,-337,539,4042,331,100682
12:14:18.628,4441,-192.3828125,541.015625,-750.9765625,-0.09285151620609834,0.16493361431346415,-0.2614503219487506,-1841,-340,534,4042,331,100682
12:14:18.649,4442,-208.0078125,531.25,-742.1875,-0.15760323145508798,0.22846359908605776,-0.3090978105281958,-1841,-340,534,4042,331,100682
12:14:18.670,4443,-194.3359375,538.0859375,-750.0,-0.2724458962363148,0.3628539514896212,-0.4043927876870862,-1841,-340,534,4042,331,100682
12:14:18.690,4444,-167.96875,567.3828125,-773.4375,-0.3066543495754037,0.4569271981721155,-0.5070181477043528,-1841,-340,534,4042,331,100682
12:14:18.710,4445,-138.671875,592.7734375,-779.296875,-0.3469714552964728,0.5900958200992829,-0.6047565858160352,-1841,-340,534,4042,331,100682
12:14:18.721,4446,-138.671875,620.1171875,-753.90625,-0.3811799086355616,0.6829473363053812,-0.6609561877302527,-1841,-338,543,4042,331,100682
12:14:18.741,4447,-143.5546875,662.109375,-738.28125,-0.4153883619746504,0.8307767239493008,-0.7757988525114795,-1841,-338,543,4042,331,100682
12:14:18.761,4448,-126.953125,718.75,-703.125,-0.44837508483734323,0.8759807515759541,-0.836885376331281,-1841,-338,543,4042,331,100682
12:14:18.782,4449,-119.140625,729.4921875,-696.2890625,-0.5473352534254218,0.9517280411125081,-0.9175195877734192,-1841,-338,543,4042,331,100682
12:14:18.792,4450,-107.421875,769.53125,-652.34375,-0.5656612105713622,1.038470904936626,-1.0030407211211414,-1845,-344,539,4042,331,100682
12:14:18.813,4451,-86.9140625,798.828125,-650.390625,-0.6585127267774605,1.0812314716104872,-1.0653489754173389,-1845,-344,539,4042,331,100682
12:14:18.834,4452,-75.1953125,855.46875,-625.0,-0.670730031541421,1.0946705068508435,-1.0653489754173389,-1845,-344,539,4030,331,100679
12:14:18.854,4453,-50.78125,894.53125,-599.609375,-0.676838683923401,1.0861183935160714,-1.0494664792241903,-1845,-344,539,4030,331,100679
12:14:18.874,4454,-20.5078125,940.4296875,-586.9140625,-0.6585127267774605,1.069014166846527,-1.0177014868378935,-1845,-344,539,4030,331,100679
12:14:18.885,4455,-9.765625,993.1640625,-520.5078125,-0.5253441048502933,0.9639453458764682,-0.9419541973013398,-1856,-355,543,4030,331,100679
12:14:18.905,4456,0.9765625,1023.4375,-501.953125,-0.4948008429403924,0.8478809506188453,-0.8429940287132612,-1856,-355,543,4030,331,100679
12:14:18.927,4457,10.7421875,1060.546875,-504.8828125,-0.49968776484597655,0.6914994496401534,-0.7305948248848264,-1856,-355,543,4030,331,100679
12:14:18.999,4458,17.578125,1061.5234375,-488.28125,-0.4715879638888679,0.5082398781807488,-0.5839871677173026,-1856,-355,543,4030,331,100679
12:14:19.19,4459,6.8359375,1012.6953125,-533.203125,-0.475253155318056,0.38362336958835364,-0.38362336958835364,-1856,-355,543,4030,331,100679
12:14:19.39,4460,-5.859375,1013.671875,-553.7109375,-0.35796702958403703,0.2663372438543347,-0.24556782575560218,-1865,-356,538,4030,331,100679
12:14:19.49,4461,-12.6953125,1035.15625,-565.4296875,-0.2223549467040776,0.15638150097869194,-0.09407324668249437,-1865,-356,538,4030,331,100679
12:14:19.70,4462,-33.203125,1083.984375,-534.1796875,-0.048869219055841226,0.06597344572538566,0.11972958668681102,-1865,-356,538,4030,331,100679
12:14:19.90,4463,2.9296875,946.2890625,-574.21875,-0.3017674276698196,0.16982053621904827,0.22724186860966175,-1865,-356,538,4030,331,100679
12:14:19.111,4464,-48.828125,940.4296875,-586.9140625,0.014660765716752368,-0.039095375244672985,0.238237442897226,-1859,-354,541,4030,331,100679
12:14:19.131,4465,-77.1484375,1013.671875,-587.890625,0.23335052099164189,-0.15149457907310784,0.4227187448330266,-1859,-354,541,4030,331,100679
12:14:19.141,4466,-117.1875,1031.25,-586.9140625,-0.025656340004316647,-0.0476474885794452,0.7574728953655392,-1859,-354,541,4030,331,100679
12:14:19.161,4467,18.5546875,791.015625,-589.84375,-0.6304129258203519,0.1466076571675237,0.7134905982152819,-1859,-354,541,4030,331,100679
12:14:19.181,4468,-80.078125,789.0625,-657.2265625,-0.37018433434799736,-0.07452555906015788,0.5778785153353226,-1859,-354,541,4030,331,100679
12:14:19.202,4469,-128.90625,913.0859375,-581.0546875,-0.16371188383706814,-0.1148426647812269,0.7195992505972622,-1851,-346,536,4030,331,100679
12:14:19.212,4470,-108.3984375,972.65625,-552.734375,0.0989601685880785,-0.07941248096574201,0.9236282401553992,-1851,-346,536,4030,331,100679
12:14:19.232,4471,-67.3828125,911.1328125,-656.25,-0.021991148575128554,-0.006108652381980153,1.0103711039795176,-1851,-346,536,4030,331,100679
12:14:19.253,4472,-20.5078125,771.484375,-624.0234375,-0.2467895562319982,-0.08063421144213802,1.0274753306490618,-1851,-346,536,4030,331,100679
12:14:19.273,4473,-71.2890625,781.25,-549.8046875,-0.020769418098732523,-0.15393804002589986,1.116661655425972,-1851,-346,536,4030,331,100679
12:14:19.294,4474,-57.6171875,819.3359375,-550.78125,0.38484510006474965,-0.20525072003453318,1.1753047182929817,-1826,-326,525,4030,331,100679
12:14:19.304,4475,-56.640625,723.6328125,-594.7265625,0.5522221753310059,-0.1905899543177808,1.0775662801812993,-1826,-326,525,4030,331,100679
12:14:19.324,4476,-41.9921875,603.515625,-588.8671875,0.4679227724596798,-0.18570303241219668,0.9040805525330627,-1826,-326,525,4030,331,100679
12:14:19.345,4477,-78.125,456.0546875,-565.4296875,0.4972443038931845,-0.2150245638457014,0.6279694648675598,-1826,-326,525,4030,331,100679
12:14:19.365,4478,-99.609375,276.3671875,-567.3828125,0.36651914291880927,-0.16249015336067207,0.32253684576855207,-1826,-326,525,4030,331,100679
12:14:19.416,4479,-130.859375,237.3046875,-579.1015625,0.1905899543177808,-0.18325957145940464,0.1893682238413848,-1790,-314,532,4030,331,100679
12:14:19.436,4480,-129.8828125,239.2578125,-533.203125,0.04031710572106901,-0.2223549467040776,0.06841690667817772,-1790,-314,532,4030,331,100679
12:14:19.457,4481,-96.6796875,192.3828125,-559.5703125,0.014660765716752368,-0.23579398194443396,-0.12950343049797927,-1790,-314,532,4030,331,100679
12:14:19.467,4482,-71.2890625,208.0078125,-623.046875,-0.04276056667386108,-0.197920337176157,-0.33475415053251245,-1790,-314,532,4030,331,100679
12:14:19.487,4483,-83.984375,402.34375,-612.3046875,-0.1942551457469689,-0.197920337176157,-0.37018433434799736,-1773,-317,536,4030,331,100679
12:14:19.508,4484,-102.5390625,589.84375,-571.2890625,-0.4056145181634822,-0.1869247628885927,-0.37507125625358145,-1773,-317,536,4030,331,100679
12:14:19.529,4485,-88.8671875,696.2890625,-614.2578125,-0.5057964172279568,-0.1710422666954443,-0.4593706591249076,-1773,-317,536,4030,331,100679
12:14:19.549,4486,-61.5234375,728.515625,-634.765625,-0.4691445029360758,-0.20525072003453318,-0.6853907972581733,-1773,-317,536,4030,331,100679
12:14:19.560,4487,-53.7109375,692.3828125,-617.1875,-0.45081854579013536,-0.33475415053251245,-0.8613199858592017,-1773,-317,536,4030,331,100679
12:14:19.580,4488,-102.5390625,731.4453125,-636.71875,-0.43860124102617504,-0.3481931857728688,-1.02503186969627,-1793,-320,539,4030,331,100679
12:14:19.601,4489,-83.0078125,830.078125,-629.8828125,-0.40805797911627434,-0.27611108766550296,-0.9993755296919531,-1793,-320,539,4030,331,100679
12:14:19.622,4490,-80.078125,849.609375,-576.171875,-0.2541199390903744,-0.22846359908605776,-0.9810495725460128,-1793,-320,539,4030,331,100679
12:14:19.632,4491,-140.625,820.3125,-578.125,-0.22846359908605776,-0.3005456971934236,-0.9883799554043888,-1793,-320,539,4030,331,100679
12:14:19.653,4492,-160.15625,854.4921875,-570.3125,-0.21258110289290938,-0.26389378290154264,-0.9492845801597158,-1793,-320,539,4030,331,100679
12:14:19.673,4493,-127.9296875,830.078125,-605.46875,-0.06597344572538566,-0.20891591146372127,-0.8491026810952413,-1829,-324,518,4030,331,100679
12:14:19.714,4494,-166.9921875,825.1953125,-543.9453125,0.08063421144213802,-0.2651155133779387,-0.7342600163140146,-1829,-324,518,4030,331,100679
12:14:19.724,4495,-250.9765625,883.7890625,-510.7421875,0.10995574287564278,-0.29810223624063154,-0.6145304296272034,-1829,-324,518,4030,331,100679
12:14:19.744,4496,-190.4296875,949.21875,-606.4453125,0.2101376419401173,-0.40072759625789806,-0.5448917924726296,-1829,-324,518,4030,331,100679
12:14:19.765,4497,-129.8828125,940.4296875,-618.1640625,0.4654793115068877,-0.37018433434799736,-0.5461135229490258,-1870,-338,513,4030,331,100679
12:14:19.785,4498,-147.4609375,908.203125,-577.1484375,0.49846603436958054,-0.2700024352835228,-0.4948008429403924,-1870,-338,513,4030,331,100679
12:14:19.805,4499,-147.4609375,993.1640625,-528.3203125,0.5057964172279568,-0.22724186860966175,-0.40194932673429407,-1870,-338,513,4030,331,100679
12:14:19.815,4500,-76.171875,1047.8515625,-617.1875,0.2956587752878394,-0.16371188383706814,-0.1734857276482364,-1870,-338,513,4030,331,100679
12:14:19.836,4501,-95.703125,1010.7421875,-641.6015625,0.023212879051524585,-0.32498030672134415,-0.12950343049797927,-1870,-338,513,4030,331,100679
12:14:19.857,4502,-103.515625,1022.4609375,-660.15625,-0.07696902001294993,-0.4202752838802346,-0.12583823906879116,-1891,-355,518,4030,331,100681
12:14:19.877,4503,-120.1171875,982.421875,-640.625,-0.10506882097005865,-0.4862487296056202,-0.04276056667386108,-1891,-355,518,4030,331,100681
12:14:19.887,4504,-127.9296875,958.0078125,-677.734375,-0.1038470904936626,-0.39828413530510604,-0.03665191429188092,-1891,-355,518,4030,331,100681
12:14:19.908,4505,-141.6015625,918.9453125,-686.5234375,-0.05742133239061345,-0.31642819338657197,0.03054326190990077,-1891,-355,518,4030,331,100681
12:14:19.929,4506,-166.9921875,889.6484375,-665.0390625,0.0012217304763960308,-0.34086280291449256,0.0952949771588904,-1891,-355,518,4030,331,100681
12:14:19.949,4507,-169.921875,838.8671875,-645.5078125,0.03543018381548489,-0.2858849314766712,0.10995574287564278,-1904,-360,516,4030,331,100681
12:14:19.980,4508,-181.640625,816.40625,-631.8359375,0.11239920382843484,-0.2883283924294633,0.12950343049797927,-1904,-360,516,4030,331,100681
12:14:20.1,4509,-190.4296875,795.8984375,-612.3046875,0.14172073526193957,-0.23212879051524585,0.16371188383706814,-1904,-360,516,4030,331,100681
12:14:20.21,4510,-205.078125,793.9453125,-614.2578125,0.1954768762233649,-0.2211332162276816,0.18448130193580062,-1904,-360,516,4030,331,100681
12:14:20.42,4511,-194.3359375,766.6015625,-612.3046875,0.13194689145077132,-0.1869247628885927,0.2028072590817411,-1910,-357,518,4030,331,100681
12:14:20.52,4512,-207.03125,761.71875,-587.890625,0.13316862192716736,-0.17470745812463243,0.1905899543177808,-1910,-357,518,4030,331,100681
12:14:20.73,4513,-193.359375,745.1171875,-594.7265625,0.1478293876439197,-0.17470745812463243,0.16982053621904827,-1910,-357,518,4030,331,100681
12:14:20.93,4514,-171.875,743.1640625,-627.9296875,0.0671951762017817,-0.17226399717184035,0.15393804002589986,-1910,-357,518,4030,331,100681
12:14:20.134,4515,-145.5078125,783.203125,-623.046875,0.004886921905584123,-0.1734857276482364,0.2113593724165133,-1910,-357,518,4030,331,100681
12:14:20.144,4516,-130.859375,828.125,-635.7421875,-0.020769418098732523,-0.16737707526625623,0.2467895562319982,-1901,-362,518,4030,331,100681
12:14:20.165,4517,-113.28125,874.0234375,-634.765625,0.004886921905584123,-0.15393804002589986,0.3530801076784529,-1901,-362,518,4030,331,100681
12:14:20.186,4518,-92.7734375,956.0546875,-644.53125,0.08552113334772216,-0.10140362954087055,0.4801400772236401,-1901,-362,518,4030,331,100681
12:14:20.206,4519,-76.171875,1000.0,-634.765625,0.10018189906447451,-0.05986479334340551,0.6279694648675598,-1901,-362,518,4030,331,100681
12:14:20.216,4520,-65.4296875,1034.1796875,-635.7421875,0.11362093430483088,-0.029321531433504737,0.7977900010866079,-1901,-362,518,4030,331,100681
12:14:20.237,4521,-38.0859375,1037.109375,-656.25,0.08918632477691024,0.010995574287564277,0.9810495725460128,-1896,-353,511,4030,331,100681
12:14:20.258,4522,-46.875,1035.15625,-667.96875,0.10506882097005865,0.06597344572538566,1.1362093430483087,-1896,-353,511,4030,331,100681
12:14:20.279,4523,-51.7578125,1045.8984375,-651.3671875,0.18570303241219668,0.1111774733520388,1.2461650859239515,-1896,-353,511,4030,331,100681
12:14:20.289,4524,-67.3828125,1054.6875,-627.9296875,0.3298672286269283,0.1905899543177808,1.317025453554921,-1896,-353,511,4030,331,100681
12:14:20.310,4525,-74.21875,1040.0390625,-637.6953125,0.37507125625358145,0.20647245051092922,1.353677367846802,-1857,-335,509,4030,331,100681
12:14:20.331,4526,-82.03125,969.7265625,-661.1328125,0.2614503219487506,0.1869247628885927,1.3707815945163466,-1857,-335,509,4030,331,100681
12:14:20.351,4527,-81.0546875,912.109375,-652.34375,0.26389378290154264,0.16859880574265224,1.3781119773747228,-1857,-335,509,4030,331,100681
12:14:20.371,4528,-84.9609375,871.09375,-623.046875,0.35918876006043304,0.10873401239924674,1.4049900478554356,-1857,-335,509,4030,331,100681
12:14:20.403,4529,-93.75,848.6328125,-591.796875,0.4447098934081552,0.03298672286269283,1.3695598640399507,-1857,-335,509,4030,331,100681
12:14:20.423,4530,-103.515625,843.75,-583.0078125,0.5131268000863329,-0.026878070480712675,1.342681793559238,-1816,-322,529,4030,331,100681
12:14:20.444,4531,-83.0078125,781.25,-622.0703125,0.32131511529215606,-0.02809980095710871,1.3597860202287821,-1816,-322,529,4030,331,100681
12:14:20.455,4532,-48.828125,698.2421875,-626.953125,0.17470745812463243,0.003665191429188092,1.3096950706965451,-1816,-322,529,4030,331,100681
12:14:20.476,4533,-22.4609375,676.7578125,-630.859375,0.36896260387160124,-0.010995574287564277,1.2522737383059315,-1816,-322,529,4030,331,100681
12:14:20.496,4534,-2.9296875,713.8671875,-630.859375,0.553443905807402,-0.026878070480712675,1.2266173983016149,-1816,-322,529,4030,331,100681
12:14:20.517,4535,15.625,718.75,-635.7421875,0.5277875658030853,-0.04153883619746505,1.2058479802028823,-1767,-311,551,4030,331,100681
12:14:20.548,4536,37.109375,689.453125,-644.53125,0.5387831400906496,-0.013439035240356337,1.19118721448613,-1767,-311,551,4030,331,100681
12:14:20.569,4537,58.59375,663.0859375,-654.296875,0.5815437067645106,-0.003665191429188092,1.2119566325848627,-1767,-311,551,4030,331,100681
12:14:20.589,4538,82.03125,666.9921875,-658.203125,0.5436700619962337,-0.014660765716752368,1.2583823906879117,-1767,-311,551,4030,331,100681
12:14:20.610,4539,107.421875,675.78125,-658.203125,0.5131268000863329,-0.08552113334772216,1.2925908440270004,-1725,-312,564,4030,331,100681
12:14:20.620,4540,116.2109375,655.2734375,-671.875,0.5717698629533424,-0.13805554383275148,1.2070697106792785,-1725,-312,564,4030,331,100681
12:14:20.641,4541,119.140625,612.3046875,-694.3359375,0.5045746867515608,-0.13683381335635544,1.19118721448613,-1725,-312,564,4030,331,100681
12:14:20.661,4542,142.578125,524.4140625,-666.9921875,0.2101376419401173,-0.11239920382843484,1.160643952576229,-1725,-312,564,4030,331,100681
12:14:20.681,4543,143.5546875,501.953125,-676.7578125,0.1307251609743753,-0.14416419621473164,1.0531316706533784,-1725,-312,564,4030,331,100681
12:14:20.692,4544,128.90625,510.7421875,-720.703125,0.20525072003453318,-0.11606439525762292,1.0189232173142897,-1683,-317,568,4030,331,100681
12:14:20.713,4545,161.1328125,351.5625,-677.734375,0.14416419621473164,-0.13683381335635544,0.8943067087218944,-1683,-317,568,4030,331,100681
12:14:20.733,4546,132.8125,254.8828125,-705.078125,0.05986479334340551,-0.15271630954950383,0.6743952229706089,-1683,-317,568,4030,331,100681
12:14:20.754,4547,119.140625,240.234375,-743.1640625,-0.020769418098732523,-0.08552113334772216,0.4691445029360758,-1683,-317,568,4030,331,100681
12:14:20.764,4548,111.328125,193.359375,-723.6328125,-0.14905111812031577,-0.0867428638241182,0.23945917337362205,-1683,-317,568,4030,331,100681
12:14:20.784,4549,103.515625,107.421875,-694.3359375,-0.13194689145077132,-0.10995574287564278,0.006108652381980153,-1659,-317,588,4030,331,100681
12:14:20.825,4550,93.75,46.875,-709.9609375,-0.14538592669112765,-0.1429424657383356,-0.18814649336498873,-1659,-317,588,4030,331,100681
12:14:20.846,4551,74.21875,95.703125,-735.3515625,-0.1307251609743753,-0.16982053621904827,-0.3469714552964728,-1659,-317,588,4030,331,100681
12:14:20.856,4552,100.5859375,207.03125,-738.28125,-0.13683381335635544,-0.1148426647812269,-0.4557054676957195,-1659,-317,588,4048,331,100688
12:14:20.876,4553,109.375,302.734375,-698.2421875,-0.18814649336498873,-0.05986479334340551,-0.6096435077216195,-1652,-312,580,4048,331,100688
12:14:20.897,4554,97.65625,379.8828125,-665.0390625,-0.2528982086139784,-0.04153883619746505,-0.7782423134642715,-1652,-312,580,4048,331,100688
12:14:20.918,4555,77.1484375,429.6875,-657.2265625,-0.24434609527920617,-0.11972958668681102,-1.0152580258851016,-1652,-312,580,4048,331,100688
12:14:20.928,4556,50.78125,464.84375,-677.734375,-0.32253684576855207,-0.1661553447898602,-1.2021827887736944,-1652,-312,580,4048,331,100688
12:14:20.968,4557,64.453125,476.5625,-681.640625,-0.4434881629317592,-0.22602013813326569,-1.2449433554475555,-1652,-312,580,4048,331,100688
12:14:20.989,4558,62.5,524.4140625,-619.140625,-0.7012732934513217,-0.2675589743307307,-1.2877039221214164,-1676,-305,580,4048,331,100688
12:14:21.9,4559,42.96875,579.1015625,-559.5703125,-1.038470904936626,-0.17470745812463243,-1.4269811964305639,-1676,-305,580,4048,331,100688
12:14:21.20,4560,9.765625,675.78125,-676.7578125,-0.8356636458548851,-0.2113593724165133,-1.5393804002589986,-1676,-305,580,4048,331,100688
12:14:21.40,4561,49.8046875,795.8984375,-693.359375,-0.6133086991508074,-0.11362093430483088,-1.4135421611902077,-1676,-305,580,4048,331,100688
12:14:21.60,4562,47.8515625,884.765625,-664.0625,-0.4960225734167885,-0.11606439525762292,-1.2999212268853766,-1676,-305,580,4048,331,100688
12:14:21.81,4563,62.5,1008.7890625,-708.984375,-0.26389378290154264,-0.010995574287564277,-1.219287015443239,-1724,-304,542,4048,331,100688
12:14:21.101,4564,72.265625,1139.6484375,-752.9296875,-0.17837264955382048,0.025656340004316647,-1.0922270458980516,-1724,-304,542,4048,331,100688
12:14:21.112,4565,95.703125,1138.671875,-778.3203125,-0.43371431912059094,-0.01710422666954443,-0.9162978572970231,-1724,-304,542,4048,331,100688
12:14:21.132,4566,122.0703125,1047.8515625,-788.0859375,-0.631634656296748,0.013439035240356337,-0.7134905982152819,-1724,-304,542,4048,331,100688
12:14:21.153,4567,101.5625,1130.859375,-735.3515625,-0.4288273972150068,0.04031710572106901,-0.5668829410477583,-1724,-304,542,4048,331,100688
12:14:21.173,4568,89.84375,1099.609375,-696.2890625,-0.516791991515521,0.0158824961931484,-0.34941491624926485,-1769,-307,533,4048,331,100688
12:14:21.183,4569,76.171875,993.1640625,-728.515625,-0.40927970959267035,0.07086036763096978,-0.33719761148530447,-1769,-307,533,4048,331,100688
12:14:21.204,4570,68.359375,975.5859375,-674.8046875,-0.18570303241219668,0.07574728953655392,-0.2419026343264141,-1769,-307,533,4048,331,100688
12:14:21.224,4571,55.6640625,883.7890625,-657.2265625,-0.1270599695451872,0.051312680008633295,-0.14172073526193957,-1769,-307,533,4048,331,100688
12:14:21.245,4572,42.96875,852.5390625,-643.5546875,-0.014660765716752368,0.06230825429619757,-0.1075122819228507,-1785,-308,528,4048,331,100688
12:14:21.265,4573,41.015625,848.6328125,-635.7421875,0.021991148575128554,0.0317649923862968,-0.08063421144213802,-1785,-308,528,4048,331,100688
12:14:21.275,4574,40.0390625,783.203125,-643.5546875,-0.025656340004316647,0.06230825429619757,-0.06963863715457375,-1785,-308,528,4048,331,100688
12:14:21.296,4575,24.4140625,786.1328125,-635.7421875,0.052534410485029326,0.07452555906015788,-0.04398229715025711,-1785,-308,528,4048,331,100688
12:14:21.316,4576,20.5078125,800.78125,-629.8828125,0.0830776723949301,0.05375614096142535,-0.024434609527920613,-1785,-308,528,4048,331,100688
12:14:21.337,4577,31.25,787.109375,-637.6953125,0.07574728953655392,0.08185594191853407,-0.010995574287564277,-1794,-307,525,4048,331,100688
12:14:21.347,4578,32.2265625,778.3203125,-641.6015625,0.1343903524035634,0.07208209810736582,-0.024434609527920613,-1794,-307,525,4048,331,100688
12:14:21.368,4579,40.0390625,753.90625,-627.9296875,0.11972958668681102,0.05375614096142535,-0.0024434609527920616,-1794,-307,525,4048,331,100688
12:14:21.388,4580,16.6015625,747.0703125,-612.3046875,0.11728612573401895,0.03787364476827696,0.0012217304763960308,-1794,-307,525,4048,331,100688
12:14:21.460,4581,19.53125,720.703125,-598.6328125,0.05742133239061345,0.05742133239061345,0.0012217304763960308,-1794,-307,525,4048,331,100688
12:14:21.481,4582,13.671875,696.2890625,-598.6328125,0.024434609527920613,0.01710422666954443,-0.048869219055841226,-1781,-307,523,4048,331,100688
12:14:21.501,4583,16.6015625,684.5703125,-612.3046875,-0.012217304763960306,0.0158824961931484,-0.07330382858376185,-1781,-307,523,4048,331,100688
12:14:21.512,4584,32.2265625,676.7578125,-610.3515625,-0.051312680008633295,0.019547687622336492,-0.09285151620609834,-1781,-307,523,4048,331,100688
12:14:21.533,4585,12.6953125,669.921875,-602.5390625,-0.06963863715457375,-0.006108652381980153,-0.1038470904936626,-1781,-307,523,4048,331,100688
12:14:21.553,4586,-10.7421875,673.828125,-601.5625,-0.06841690667817772,-0.03420845333908886,-0.14905111812031577,-1788,-307,531,4048,331,100688
12:14:21.574,4587,-19.53125,671.875,-614.2578125,-0.048869219055841226,-0.05375614096142535,-0.18325957145940464,-1788,-307,531,4048,331,100688
12:14:21.594,4588,-21.484375,638.671875,-601.5625,-0.09162978572970232,-0.08429940287132612,-0.22846359908605776,-1788,-307,531,4048,331,100688
12:14:21.604,4589,-36.1328125,640.625,-583.0078125,-0.1111774733520388,-0.11972958668681102,-0.2895501229058593,-1788,-307,531,4048,331,100688
12:14:21.625,4590,-59.5703125,671.875,-538.0859375,-0.11850785621041499,-0.2345722514680379,-0.35796702958403703,-1788,-307,531,4048,331,100688
12:14:21.645,4591,-57.6171875,673.828125,-504.8828125,-0.18570303241219668,-0.35185837720205687,-0.42394047530942264,-1787,-302,526,4048,331,100688
12:14:21.666,4592,-37.109375,647.4609375,-538.0859375,-0.20891591146372127,-0.41416663149825445,-0.5131268000863329,-1787,-302,526,4048,331,100688
12:14:21.686,4593,-16.6015625,668.9453125,-582.03125,-0.1270599695451872,-0.43615778007338296,-0.6108652381980153,-1787,-302,526,4048,331,100688
12:14:21.696,4594,7.8125,691.40625,-604.4921875,-0.025656340004316647,-0.5070181477043528,-0.6792821448761931,-1787,-302,526,4048,331,100688
12:14:21.717,4595,2.9296875,719.7265625,-596.6796875,-0.006108652381980153,-0.5351179486614615,-0.6927211801165495,-1787,-302,526,4048,331,100688
12:14:21.738,4596,-3.90625,764.6484375,-617.1875,0.010995574287564277,-0.5876523591464908,-0.7269296334556383,-1816,-313,522,4048,331,100688
12:14:21.758,4597,-4.8828125,809.5703125,-693.359375,0.15393804002589986,-0.6120869686744114,-0.7990117315630041,-1816,-313,522,4048,331,100688
12:14:21.769,4598,-32.2265625,840.8203125,-704.1015625,0.2895501229058593,-0.6023131248632432,-0.8258898020437169,-1816,-313,522,4048,331,100688
12:14:21.789,4599,-42.96875,921.875,-671.875,0.3628539514896212,-0.6084217772452234,-0.7843509658462519,-1816,-313,522,4048,331,100688
12:14:21.810,4600,-80.078125,1002.9296875,-652.34375,0.4654793115068877,-0.6511823439190844,-0.7293730944084303,-1846,-323,525,4048,331,100688
12:14:21.830,4601,-98.6328125,1021.484375,-675.78125,0.5375614096142536,-0.6976081020221336,-0.6976081020221336,-1846,-323,525,4048,331,100688
12:14:21.841,4602,-108.3984375,1066.40625,-643.5546875,0.6976081020221336,-0.7318165553612224,-0.6145304296272034,-1846,-323,525,4030,331,100682
12:14:21.861,4603,-86.9140625,1091.796875,-641.6015625,0.5729915934297385,-0.7525859734599549,-0.42394047530942264,-1846,-323,525,4030,331,100682
12:14:21.882,4604,-92.7734375,1075.1953125,-658.203125,0.40317105721069013,-0.7867944267990439,-0.2419026343264141,-1846,-323,525,4030,331,100682
12:14:21.902,4605,-137.6953125,1097.65625,-652.34375,0.39706240482871,-0.836885376331281,-0.051312680008633295,-1882,-351,528,4030,331,100682
12:14:21.923,4606,-144.53125,952.1484375,-733.3984375,0.07574728953655392,-0.6536258048718764,0.16249015336067207,-1882,-351,528,4030,331,100682
12:14:21.933,4607,-188.4765625,945.3125,-710.9375,0.23945917337362205,-0.6438519610607082,0.2235766771804736,-1882,-351,528,4030,331,100682
12:14:21.953,4608,-203.125,920.8984375,-710.9375,0.10995574287564278,-0.5876523591464908,0.4532620067429274,-1882,-351,528,4030,331,100682
12:14:21.974,4609,-211.9140625,934.5703125,-687.5,0.08429940287132612,-0.558330827712986,0.5595525581893821,-1882,-351,528,4030,331,100682
12:14:21.994,4610,-242.1875,863.28125,-700.1953125,-0.05986479334340551,-0.514348530562729,0.7367034772668065,-1896,-359,514,4030,331,100682
12:14:22.15,4611,-229.4921875,869.140625,-671.875,0.06230825429619757,-0.3909537524467298,0.8112290363269644,-1896,-359,514,4030,331,100682
12:14:22.25,4612,-235.3515625,901.3671875,-652.34375,0.13194689145077132,-0.37629298672997746,0.9786061115932208,-1896,-359,514,4030,331,100682
12:14:22.46,4613,-207.03125,828.125,-676.7578125,0.1233947781159991,-0.3677408733952052,1.0348057135074382,-1896,-359,514,4030,331,100682
12:14:22.66,4614,-225.5859375,823.2421875,-571.2890625,0.10262536001726659,-0.4618141200776996,1.1301006906663282,-1888,-348,517,4030,331,100682
12:14:22.87,4615,-284.1796875,746.09375,-611.328125,0.1148426647812269,-0.5595525581893821,1.1801916401985657,-1888,-348,517,4030,331,100682
12:14:22.98,4616,-276.3671875,618.1640625,-656.25,0.12950343049797927,-0.3787364476827696,1.2534954687823276,-1888,-348,517,4030,331,100682
12:14:22.118,4617,-325.1953125,475.5859375,-757.8125,-0.29810223624063154,-0.238237442897226,1.2522737383059315,-1888,-348,517,4030,331,100682
12:14:22.138,4618,-330.078125,393.5546875,-737.3046875,-0.2113593724165133,-0.08552113334772216,1.10200088970922,-1888,-348,517,4030,331,100682
12:14:22.159,4619,-378.90625,325.1953125,-738.28125,-0.2700024352835228,-0.024434609527920613,0.8674286382411819,-1856,-327,512,4030,331,100682
12:14:22.180,4620,-408.203125,243.1640625,-739.2578125,-0.20891591146372127,-0.007330382858376184,0.6279694648675598,-1856,-327,512,4030,331,100682
12:14:22.190,4621,-381.8359375,210.9375,-722.65625,-0.04153883619746505,0.04398229715025711,0.32131511529215606,-1856,-327,512,4030,331,100682
12:14:22.210,4622,-356.4453125,146.484375,-729.4921875,0.12095131716320705,0.05742133239061345,0.12828170002158323,-1856,-327,512,4030,331,100682
12:14:22.231,4623,-346.6796875,141.6015625,-707.03125,0.26022859147235455,0.0635299847725936,-0.07941248096574201,-1856,-327,512,4030,331,100682
12:14:22.251,4624,-348.6328125,264.6484375,-693.359375,0.2907718533822553,0.1111774733520388,-0.2736676267127109,-1830,-312,504,4030,331,100682
12:14:22.271,4625,-327.1484375,339.84375,-645.5078125,0.2150245638457014,0.14416419621473164,-0.4569271981721155,-1830,-312,504,4030,331,100682
12:14:22.302,4626,-313.4765625,398.4375,-650.390625,-0.012217304763960306,0.08429940287132612,-0.6157521601035995,-1830,-312,504,4030,331,100682
12:14:22.323,4627,-300.78125,453.125,-663.0859375,-0.09040805525330627,0.008552113334772215,-0.8552113334772216,-1830,-312,504,4030,331,100682
12:14:22.344,4628,-264.6484375,536.1328125,-684.5703125,-0.10140362954087055,0.08552113334772216,-1.0433578268422103,-1833,-316,512,4030,331,100682
12:14:22.354,4629,-281.25,644.53125,-701.171875,-0.051312680008633295,0.2345722514680379,-1.1191051163787642,-1833,-316,512,4030,331,100682
12:14:22.425,4630,-248.046875,689.453125,-661.1328125,-0.04153883619746505,0.2858849314766712,-1.0409143658894182,-1833,-316,512,4030,331,100682
12:14:22.446,4631,-242.1875,766.6015625,-675.78125,-0.023212879051524585,0.3445279943436807,-1.033583983031042,-1833,-316,512,4030,331,100682
12:14:22.466,4632,-236.328125,913.0859375,-698.2421875,-0.019547687622336492,0.37507125625358145,-0.9602801544472802,-1833,-316,512,4030,331,100682
12:14:22.487,4633,-174.8046875,1011.71875,-703.125,-0.06230825429619757,0.46670104198328377,-0.7672467391767073,-1861,-338,516,4030,331,100682
12:14:22.507,4634,-172.8515625,1028.3203125,-667.96875,-0.1466076571675237,0.4043927876870862,-0.6145304296272034,-1861,-338,516,4030,331,100682
12:14:22.517,4635,-163.0859375,1023.4375,-664.0625,-0.2150245638457014,0.38606683054114566,-0.5106833391335408,-1861,-338,516,4030,331,100682
12:14:22.538,4636,-154.296875,1044.921875,-674.8046875,-0.12217304763960309,0.33719761148530447,-0.4153883619746504,-1861,-338,516,4030,331,100682
12:14:22.558,4637,-121.09375,1000.9765625,-678.7109375,-0.2724458962363148,0.33597588100890846,-0.2419026343264141,-1861,-338,516,4030,331,100682
12:14:22.579,4638,-146.484375,934.5703125,-648.4375,-0.39339721339952194,0.278554548618295,-0.07330382858376185,-1873,-344,529,4030,331,100682
12:14:22.589,4639,-146.484375,872.0703125,-660.15625,-0.35796702958403703,0.2858849314766712,-0.021991148575128554,-1873,-344,529,4030,331,100682
12:14:22.609,4640,-151.3671875,838.8671875,-674.8046875,-0.16737707526625623,0.2296853295624538,0.029321531433504737,-1873,-344,529,4030,331,100682
12:14:22.630,4641,-137.6953125,793.9453125,-659.1796875,-0.07086036763096978,0.17592918860102844,0.048869219055841226,-1873,-344,529,4030,331,100682
12:14:22.650,4642,-155.2734375,768.5546875,-667.96875,0.020769418098732523,0.1893682238413848,0.07208209810736582,-1878,-350,527,4030,331,100682
12:14:22.671,4643,-160.15625,768.5546875,-643.5546875,0.08918632477691024,0.1478293876439197,0.08185594191853407,-1878,-350,527,4030,331,100682
12:14:22.681,4644,-162.109375,732.421875,-656.25,0.07086036763096978,0.16249015336067207,0.05375614096142535,-1878,-350,527,4030,331,100682
12:14:22.702,4645,-167.96875,730.46875,-667.96875,0.10140362954087055,0.17715091907742447,0.05986479334340551,-1878,-350,527,4030,331,100682
12:14:22.722,4646,-159.1796875,717.7734375,-657.2265625,0.14049900478554353,0.16249015336067207,0.05986479334340551,-1878,-350,527,4030,331,100682
12:14:22.743,4647,-154.296875,718.75,-653.3203125,0.12828170002158323,0.15271630954950383,0.06475171524898964,-1869,-349,524,4030,331,100682
12:14:22.753,4648,-154.296875,706.0546875,-664.0625,0.12095131716320705,0.13194689145077132,0.05497787143782139,-1869,-349,524,4030,331,100682
12:14:22.773,4649,-161.1328125,693.359375,-681.640625,0.12950343049797927,0.11239920382843484,0.052534410485029326,-1869,-349,524,4030,331,100682
12:14:22.794,4650,-162.109375,681.640625,-709.9609375,0.16859880574265224,0.12217304763960309,0.04031710572106901,-1869,-349,524,4030,331,100682
12:14:22.814,4651,-157.2265625,671.875,-720.703125,0.18081611050661253,0.1710422666954443,0.021991148575128554,-1869,-349,524,4030,331,100682
12:14:22.835,4652,-171.875,667.96875,-733.3984375,0.16737707526625623,0.2162462943220974,0.019547687622336492,-1866,-346,524,4030,331,100684
12:14:22.845,4653,-182.6171875,662.109375,-754.8828125,0.17715091907742447,0.2431243648028101,0.003665191429188092,-1866,-346,524,4030,331,100684
12:14:22.865,4654,-187.5,645.5078125,-769.53125,0.18570303241219668,0.29932396671702755,-0.051312680008633295,-1866,-346,524,4030,331,100684
12:14:22.886,4655,-184.5703125,620.1171875,-772.4609375,0.14416419621473164,0.3738495257771854,-0.07574728953655392,-1866,-346,524,4030,331,100684
12:14:22.907,4656,-188.4765625,608.3984375,-773.4375,0.07208209810736582,0.4447098934081552,-0.1392772743091475,-1866,-346,524,4030,331,100684
12:14:22.917,4657,-195.3125,609.375,-773.4375,0.04031710572106901,0.5033529562751646,-0.16737707526625623,-1860,-355,545,4030,331,100684
12:14:22.938,4658,-185.546875,606.4453125,-771.484375,0.02809980095710871,0.5962044724812631,-0.23579398194443396,-1860,-355,545,4030,331,100684
12:14:22.959,4659,-174.8046875,582.03125,-763.671875,-0.01710422666954443,0.6377433086787281,-0.3078760800517997,-1860,-355,545,4030,331,100684
12:14:22.980,4660,-182.6171875,566.40625,-748.046875,-0.0867428638241182,0.7110471372624899,-0.40927970959267035,-1860,-355,545,4030,331,100684
12:14:23.1,4661,-176.7578125,559.5703125,-734.375,-0.1661553447898602,0.7904596182282319,-0.4960225734167885,-1855,-356,558,4030,331,100684
12:14:23.11,4662,-163.0859375,549.8046875,-704.1015625,-0.2663372438543347,0.8637634468119937,-0.5876523591464908,-1855,-356,558,4030,331,100684
12:14:23.32,4663,-157.2265625,541.9921875,-678.7109375,-0.3457497248200767,0.915076126820627,-0.751364242983559,-1855,-356,558,4030,331,100684
12:14:23.52,4664,-153.3203125,541.015625,-650.390625,-0.475253155318056,0.9456193887305279,-0.8833111344343304,-1855,-356,558,4030,331,100684
12:14:23.73,4665,-158.203125,541.015625,-641.6015625,-0.5595525581893821,0.9834930334988048,-1.03114052207825,-1855,-356,558,4030,331,100684
12:14:23.83,4666,-165.0390625,572.265625,-634.765625,-0.6059783162924314,0.9969320687391611,-1.147204917335873,-1844,-365,570,4030,331,100684
12:14:23.104,4667,-166.015625,601.5625,-608.3984375,-0.7452555906015788,1.0164797563614976,-1.2815952697394362,-1844,-365,570,4030,331,100684
12:14:23.145,4668,-160.15625,633.7890625,-572.265625,-0.9480628496833199,1.0213666782670816,-1.3952162040442673,-1844,-365,570,4030,331,100684
12:14:23.165,4669,-163.0859375,669.921875,-563.4765625,-1.0372491744602301,0.9639453458764682,-1.502728485967118,-1844,-365,570,4030,331,100684
12:14:23.175,4670,-164.0625,710.9375,-567.3828125,-1.0091493735031216,0.915076126820627,-1.5772540450272756,-1844,-365,570,4030,331,100684
12:14:23.196,4671,-166.9921875,748.046875,-559.5703125,-0.9431759277777358,0.8784242125287461,-1.6713272917097701,-1855,-374,571,4030,331,100684
12:14:23.217,4672,-163.0859375,750.0,-553.7109375,-0.915076126820627,0.8295549934729048,-1.703092284096067,-1855,-374,571,4030,331,100684
12:14:23.238,4673,-163.0859375,732.421875,-561.5234375,-0.9492845801597158,0.7990117315630041,-1.7324138155295716,-1855,-374,571,4030,331,100684
12:14:23.249,4674,-208.0078125,755.859375,-536.1328125,-0.9260717011081913,0.7367034772668065,-1.7800613041090168,-1855,-374,571,4030,331,100684
12:14:23.269,4675,-239.2578125,768.5546875,-512.6953125,-0.9297368925373793,0.7208209810736581,-1.789835147920185,-1880,-379,571,4030,331,100684
12:14:23.290,4676,-234.375,750.9765625,-489.2578125,-0.8307767239493008,0.6866125277345693,-1.8704693593623234,-1880,-379,571,4030,331,100684
12:14:23.310,4677,-272.4609375,746.09375,-495.1171875,-0.7476990515543708,0.553443905807402,-1.9095647346069962,-1880,-379,571,4030,331,100684
12:14:23.320,4678,-297.8515625,760.7421875,-523.4375,-0.7623598172711232,0.45204027626653137,-1.904677812701412,-1880,-379,571,4030,331,100684
12:14:23.341,4679,-326.171875,783.203125,-570.3125,-0.6829473363053812,0.40927970959267035,-1.9205603088945604,-1880,-379,571,4030,331,100684
12:14:23.362,4680,-343.75,765.625,-583.984375,-0.560774288665778,0.40194932673429407,-1.9584339536628372,-1910,-397,552,4030,331,100684
12:14:23.382,4681,-356.4453125,760.7421875,-538.0859375,-0.37629298672997746,0.3445279943436807,-1.9645426060448175,-1910,-397,552,4030,331,100684
12:14:23.413,4682,-354.4921875,727.5390625,-469.7265625,-0.31642819338657197,0.2211332162276816,-1.9523253012808572,-1910,-397,552,4030,331,100684
12:14:23.433,4683,-413.0859375,696.2890625,-467.7734375,-0.1820378409830086,0.025656340004316647,-1.9987510593839062,-1910,-397,552,4030,331,100684
12:14:23.454,4684,-458.984375,743.1640625,-483.3984375,0.05742133239061345,-0.08918632477691024,-1.988977215572738,-1910,-397,552,4030,331,100684
12:14:23.474,4685,-446.2890625,758.7890625,-498.046875,0.3274237676741363,-0.2076941809873252,-1.947438379375273,-1955,-437,545,4030,331,100684
12:14:23.484,4686,-467.7734375,715.8203125,-458.984375,0.4422664324553632,-0.2932153143350474,-1.910786465083392,-1955,-437,545,4030,331,100684
12:14:23.505,4687,-516.6015625,652.34375,-433.59375,0.48747046008201633,-0.4593706591249076,-1.8851301250790755,-1955,-437,545,4030,331,100684
12:14:23.526,4688,-554.6875,626.953125,-417.96875,0.5033529562751646,-0.6585127267774605,-1.9144516565125802,-1955,-437,545,4030,331,100684
12:14:23.567,4689,-563.4765625,619.140625,-412.109375,0.5632177496185702,-0.7684684696531033,-1.9230037698473523,-1997,-495,558,4030,331,100684
12:14:23.577,4690,-559.5703125,623.046875,-423.828125,0.5668829410477583,-0.8820894039579342,-1.8973474298430355,-1997,-495,558,4030,331,100684
12:14:23.598,4691,-602.5390625,662.109375,-465.8203125,0.5876523591464908,-0.9590584239708841,-1.755626694581096,-1997,-495,558,4030,331,100684
12:14:23.619,4692,-647.4609375,740.234375,-532.2265625,0.6365215782023321,-1.0164797563614976,-1.587027888838444,-1997,-495,558,4030,331,100684
12:14:23.639,4693,-622.0703125,755.859375,-484.375,0.6267477343911638,-1.1349876125719125,-1.4514158059584847,-1997,-495,558,4030,331,100684
12:14:23.649,4694,-588.8671875,639.6484375,-422.8515625,0.6023131248632432,-1.3304644887952775,-1.3390166021300498,-2042,-566,543,4030,331,100684
12:14:23.670,4695,-641.6015625,547.8515625,-456.0546875,0.7391469382195985,-1.4330898488125443,-1.3023646878381687,-2042,-566,543,4030,331,100684
12:14:23.691,4696,-739.2578125,465.8203125,-498.046875,0.7880161572754398,-1.5015067554907218,-1.308473340220149,-2042,-566,543,4030,331,100684
12:14:23.711,4697,-782.2265625,429.6875,-419.921875,0.9602801544472802,-1.5613715488341273,-1.3390166021300498,-2042,-566,543,4030,331,100684
12:14:23.732,4698,-805.6640625,330.078125,-310.546875,1.0580185925589627,-1.6090190374135724,-1.3573425592759902,-2042,-566,543,4030,331,100684
12:14:23.743,4699,-887.6953125,299.8046875,-351.5625,0.9834930334988048,-1.549154244070167,-1.3292427583188815,-2079,-630,500,4030,331,100684
12:14:23.763,4700,-947.265625,282.2265625,-478.515625,0.6951646410693415,-1.4795156069155933,-1.2449433554475555,-2079,-630,500,4030,331,100684
12:14:23.783,4701,-942.3828125,212.890625,-539.0625,0.4214970143566306,-1.42820292690696,-1.2131783630612585,-2079,-630,500,4030,331,100684
12:14:23.804,4702,-936.5234375,136.71875,-465.8203125,0.197920337176157,-1.4514158059584847,-1.1753047182929817,-2079,-630,500,4042,331,100680
12:14:23.834,4703,-1001.953125,110.3515625,-406.25,0.04276056667386108,-1.4905111812031575,-1.1301006906663282,-2109,-694,440,4042,331,100680
12:14:23.854,4704,-1051.7578125,132.8125,-432.6171875,-0.09773843811168245,-1.4098769697610194,-1.1252137687607444,-2109,-694,440,4042,331,100680
12:14:23.875,4705,-1022.4609375,138.671875,-481.4453125,-0.16004669240788005,-1.3023646878381687,-1.072679358275715,-2109,-694,440,4042,331,100680
12:14:23.895,4706,-1010.7421875,145.5078125,-431.640625,0.006108652381980153,-1.2754866173574562,-0.9749409201640327,-2109,-694,440,4042,331,100680
12:14:23.906,4707,-1040.0390625,164.0625,-337.890625,0.2883283924294633,-1.263269312593496,-0.8637634468119937,-2109,-694,440,4042,331,100680
12:14:23.926,4708,-1047.8515625,161.1328125,-293.9453125,0.4422664324553632,-1.1985175973445061,-0.7415903991723907,-2124,-743,390,4042,331,100680
12:14:23.946,4709,-1031.25,206.0546875,-333.984375,0.4398229715025711,-1.0983356982800316,-0.6230825429619757,-2124,-743,390,4042,331,100680
12:14:23.988,4710,-996.09375,236.328125,-342.7734375,0.4862487296056202,-1.0140362954087057,-0.5045746867515608,-2124,-743,390,4042,331,100680
12:14:23.998,4711,-976.5625,270.5078125,-244.140625,0.5693264020005504,-1.0079276430267254,-0.3811799086355616,-2124,-743,390,4042,331,100680
12:14:24.19,4712,-1026.3671875,242.1875,-149.4140625,0.5436700619962337,-1.0238101392198737,-0.2956587752878394,-2124,-743,390,4042,331,100680
12:14:24.40,4713,-1003.90625,240.234375,-155.2734375,0.42394047530942264,-0.9370672753957556,-0.2724458962363148,-2134,-772,346,4042,331,100680
12:14:24.111,4714,-956.0546875,200.1953125,-200.1953125,0.3628539514896212,-0.831998454425697,-0.2076941809873252,-2134,-772,346,4042,331,100680
12:14:24.132,4715,-953.125,158.203125,-200.1953125,0.34086280291449256,-0.7476990515543708,-0.1478293876439197,-2134,-772,346,4042,331,100680
12:14:24.143,4716,-976.5625,138.671875,-207.03125,0.3640756819660172,-0.6352998477259361,-0.09285151620609834,-2134,-772,346,4042,331,100680
12:14:24.163,4717,-996.09375,91.796875,-213.8671875,0.4471533543609472,-0.5546656362837981,-0.051312680008633295,-2122,-783,294,4042,331,100680
12:14:24.183,4718,-1032.2265625,44.921875,-201.171875,0.5619960191421741,-0.43615778007338296,-0.010995574287564277,-2122,-783,294,4042,331,100680
12:14:24.204,4719,-1019.53125,20.5078125,-207.03125,0.555887366760194,-0.3445279943436807,0.009773843811168246,-2122,-783,294,4042,331,100680
12:14:24.224,4720,-1053.7109375,18.5546875,-187.5,0.5229006438975012,-0.2675589743307307,0.02809980095710871,-2122,-783,294,4042,331,100680
12:14:24.234,4721,-1041.015625,34.1796875,-171.875,0.4544837372193235,-0.1942551457469689,0.04031710572106901,-2122,-783,294,4042,331,100680
12:14:24.254,4722,-1041.9921875,45.8984375,-158.203125,0.4471533543609472,-0.07208209810736582,0.03420845333908886,-2129,-789,271,4042,331,100680
12:14:24.275,4723,-1020.5078125,5.859375,-154.296875,0.31764992386296803,0.006108652381980153,0.04276056667386108,-2129,-789,271,4042,331,100680
12:14:24.326,4724,-1003.90625,5.859375,-158.203125,0.19181168479417682,0.07452555906015788,0.023212879051524585,-2129,-789,271,4042,331,100680
12:14:24.346,4725,-992.1875,16.6015625,-137.6953125,0.058643062867009474,0.10018189906447451,0.010995574287564277,-2129,-789,271,4042,331,100680
12:14:24.367,4726,-991.2109375,50.78125,-120.1171875,0.1038470904936626,0.10995574287564278,0.008552113334772215,-2129,-789,271,4042,331,100680
12:14:24.388,4727,-1000.0,105.46875,-83.0078125,0.2028072590817411,0.1111774733520388,0.03543018381548489,-2126,-788,267,4042,331,100680
12:14:24.398,4728,-1007.8125,87.890625,-55.6640625,0.3274237676741363,0.08063421144213802,0.008552113334772215,-2126,-788,267,4042,331,100680
12:14:24.419,4729,-987.3046875,47.8515625,-60.546875,0.37140606482439337,0.058643062867009474,0.014660765716752368,-2126,-788,267,4042,331,100680
12:14:24.439,4730,-977.5390625,16.6015625,-65.4296875,0.32498030672134415,0.03543018381548489,-0.012217304763960306,-2126,-788,267,4042,331,100680
12:14:24.460,4731,-974.609375,-4.8828125,-60.546875,0.16126842288427604,0.03054326190990077,-0.01710422666954443,-2126,-785,271,4042,331,100680
12:14:24.470,4732,-974.609375,-0.9765625,-56.640625,0.008552113334772215,0.01710422666954443,-0.03420845333908886,-2126,-785,271,4042,331,100680
12:14:24.491,4733,-962.890625,31.25,-78.125,-0.07941248096574201,0.021991148575128554,-0.05619960191421742,-2126,-785,271,4042,331,100680
12:14:24.511,4734,-964.84375,51.7578125,-78.125,-0.1038470904936626,-0.008552113334772215,-0.039095375244672985,-2126,-785,271,4042,331,100680
12:14:24.532,4735,-984.375,49.8046875,-72.265625,-0.08796459430051422,-0.04031710572106901,-0.03054326190990077,-2126,-785,271,4042,331,100680
12:14:24.552,4736,-985.3515625,38.0859375,-98.6328125,-0.09162978572970232,-0.03665191429188092,-0.020769418098732523,-2122,-784,269,4042,331,100680
12:14:24.563,4737,-984.375,50.78125,-122.0703125,-0.10995574287564278,-0.04642575810304917,-0.007330382858376184,-2122,-784,269,4042,331,100680
12:14:24.583,4738,-988.28125,58.59375,-123.046875,-0.0867428638241182,-0.06963863715457375,0.0024434609527920616,-2122,-784,269,4042,331,100680
12:14:24.604,4739,-987.3046875,59.5703125,-123.046875,-0.07330382858376185,-0.06108652381980154,0.006108652381980153,-2122,-784,269,4042,331,100680
12:14:24.624,4740,-993.1640625,41.9921875,-127.9296875,-0.014660765716752368,-0.07330382858376185,0.03298672286269283,-2122,-784,269,4042,331,100680
12:14:24.634,4741,-1000.0,26.3671875,-127.9296875,-0.006108652381980153,-0.06841690667817772,0.04276056667386108,-2128,-785,283,4042,331,100680
12:14:24.654,4742,-1000.9765625,32.2265625,-137.6953125,-0.006108652381980153,-0.05009094953223726,0.029321531433504737,-2128,-785,283,4042,331,100680
12:14:24.674,4743,-1002.9296875,34.1796875,-131.8359375,0.003665191429188092,-0.0476474885794452,0.0476474885794452,-2128,-785,283,4042,331,100680
12:14:24.695,4744,-1000.0,41.9921875,-138.671875,0.05375614096142535,-0.039095375244672985,0.039095375244672985,-2128,-785,283,4042,331,100680
12:14:24.716,4745,-996.09375,58.59375,-125.9765625,0.07574728953655392,-0.039095375244672985,0.04520402762665313,-2128,-785,283,4042,331,100680
12:14:24.726,4746,-983.3984375,54.6875,-99.609375,0.048869219055841226,-0.0317649923862968,0.0476474885794452,-2124,-789,266,4042,331,100680
12:14:24.746,4747,-981.4453125,43.9453125,-92.7734375,0.003665191429188092,-0.023212879051524585,0.05497787143782139,-2124,-789,266,4042,331,100680
12:14:24.767,4748,-975.5859375,43.9453125,-101.5625,-0.01710422666954443,-0.029321531433504737,0.04153883619746505,-2124,-789,266,4042,331,100680
12:14:24.788,4749,-980.46875,47.8515625,-125.0,-0.013439035240356337,-0.04153883619746505,0.04398229715025711,-2124,-789,266,4042,331,100680
12:14:24.798,4750,-978.515625,47.8515625,-120.1171875,0.010995574287564277,-0.03787364476827696,0.04276056667386108,-2121,-784,271,4042,331,100680
12:14:24.819,4751,-983.3984375,51.7578125,-123.046875,0.03420845333908886,-0.0317649923862968,0.03420845333908886,-2121,-784,271,4042,331,100680
12:14:24.839,4752,-987.3046875,38.0859375,-127.9296875,0.03420845333908886,-0.025656340004316647,0.014660765716752368,-2121,-784,271,4030,331,100683
12:14:24.860,4753,-981.4453125,29.296875,-118.1640625,0.004886921905584123,-0.029321531433504737,0.01710422666954443,-2121,-784,271,4030,331,100683
12:14:24.870,4754,-992.1875,34.1796875,-108.3984375,-0.04398229715025711,-0.009773843811168246,0.013439035240356337,-2121,-784,271,4030,331,100683
12:14:24.890,4755,-984.375,55.6640625,-108.3984375,-0.023212879051524585,-0.025656340004316647,-0.004886921905584123,-2128,-784,262,4030,331,100683
12:14:24.911,4756,-986.328125,56.640625,-112.3046875,0.007330382858376184,-0.0158824961931484,-0.026878070480712675,-2128,-784,262,4030,331,100683
12:14:24.931,4757,-981.4453125,42.96875,-121.09375,0.01832595714594046,-0.024434609527920613,-0.021991148575128554,-2128,-784,262,4030,331,100683
12:14:24.952,4758,-987.3046875,39.0625,-128.90625,-0.004886921905584123,-0.02809980095710871,-0.019547687622336492,-2128,-784,262,4030,331,100683
12:14:24.963,4759,-989.2578125,44.921875,-123.046875,-0.009773843811168246,-0.025656340004316647,-0.01832595714594046,-2128,-784,262,4030,331,100683
12:14:24.983,4760,-983.3984375,52.734375,-101.5625,-0.0317649923862968,-0.010995574287564277,-0.03298672286269283,-2128,-782,264,4030,331,100683
12:14:25.3,4761,-991.2109375,51.7578125,-97.65625,-0.03298672286269283,-0.0317649923862968,-0.024434609527920613,-2128,-782,264,4030,331,100683
12:14:25.24,4762,-982.421875,50.78125,-114.2578125,-0.02809980095710871,-0.048869219055841226,-0.026878070480712675,-2128,-782,264,4030,331,100683
12:14:25.34,4763,-982.421875,47.8515625,-115.234375,-0.025656340004316647,-0.039095375244672985,-0.023212879051524585,-2128,-782,264,4030,331,100683
12:14:25.54,4764,-985.3515625,49.8046875,-117.1875,-0.06230825429619757,-0.03298672286269283,-0.023212879051524585,-2124,-776,269,4030,331,100683
12:14:25.95,4765,-986.328125,49.8046875,-117.1875,-0.021991148575128554,-0.0476474885794452,-0.026878070480712675,-2124,-776,269,4030,331,100683
12:14:25.115,4766,-988.28125,49.8046875,-114.2578125,-0.010995574287564277,-0.04276056667386108,-0.012217304763960306,-2124,-776,269,4030,331,100683
12:14:25.125,4767,-989.2578125,46.875,-119.140625,-0.01832595714594046,-0.05986479334340551,-0.013439035240356337,-2124,-776,269,4030,331,100683
12:14:25.146,4768,-988.28125,48.828125,-112.3046875,-0.03665191429188092,-0.058643062867009474,-0.008552113334772215,-2124,-776,269,4030,331,100683
12:14:25.166,4769,-983.3984375,48.828125,-120.1171875,-0.0476474885794452,-0.03787364476827696,-0.008552113334772215,-2127,-783,265,4030,331,100683
12:14:25.186,4770,-985.3515625,59.5703125,-110.3515625,-0.013439035240356337,-0.05375614096142535,0.006108652381980153,-2127,-783,265,4030,331,100683
12:14:25.207,4771,-990.234375,53.7109375,-110.3515625,0.0,-0.04520402762665313,0.008552113334772215,-2127,-783,265,4030,331,100683
12:14:25.217,4772,-986.328125,42.96875,-120.1171875,0.004886921905584123,-0.04520402762665313,0.0012217304763960308,-2127,-783,265,4030,331,100683
12:14:25.237,4773,-986.328125,48.828125,-117.1875,0.008552113334772215,-0.052534410485029326,0.003665191429188092,-2127,-783,265,4030,331,100683
12:14:25.258,4774,-982.421875,41.015625,-118.1640625,-0.007330382858376184,-0.051312680008633295,0.021991148575128554,-2127,-784,264,4030,331,100683
12:14:25.278,4775,-989.2578125,49.8046875,-116.2109375,0.004886921905584123,-0.048869219055841226,0.014660765716752368,-2127,-784,264,4030,331,100683
12:14:25.288,4776,-987.3046875,44.921875,-117.1875,0.010995574287564277,-0.04642575810304917,0.006108652381980153,-2127,-784,264,4030,331,100683
12:14:25.309,4777,-986.328125,36.1328125,-114.2578125,0.007330382858376184,-0.03787364476827696,0.006108652381980153,-2127,-784,264,4030,331,100683
12:14:25.329,4778,-981.4453125,34.1796875,-121.09375,-0.012217304763960306,-0.05009094953223726,0.009773843811168246,-2129,-779,267,4030,331,100683
12:14:25.350,4779,-984.375,47.8515625,-118.1640625,-0.03420845333908886,-0.04520402762665313,0.026878070480712675,-2129,-779,267,4030,331,100683
12:14:25.380,4780,-989.2578125,49.8046875,-111.328125,-0.06475171524898964,-0.048869219055841226,0.0024434609527920616,-2129,-779,267,4030,331,100683
12:14:25.400,4781,-984.375,57.6171875,-122.0703125,-0.04398229715025711,-0.052534410485029326,0.007330382858376184,-2129,-779,267,4030,331,100683
12:14:25.421,4782,-992.1875,55.6640625,-125.0,-0.008552113334772215,-0.04276056667386108,0.003665191429188092,-2129,-779,267,4030,331,100683
12:14:25.441,4783,-984.375,57.6171875,-132.8125,0.021991148575128554,-0.02809980095710871,0.007330382858376184,-2123,-778,271,4030,331,100683
12:14:25.461,4784,-972.65625,55.6640625,-125.9765625,0.03543018381548489,-0.0476474885794452,0.0012217304763960308,-2123,-778,271,4030,331,100683
12:14:25.472,4785,-972.65625,50.78125,-118.1640625,0.014660765716752368,-0.04642575810304917,0.0,-2123,-778,271,4030,331,100683
12:14:25.492,4786,-979.4921875,42.96875,-112.3046875,0.03543018381548489,-0.04398229715025711,-0.0012217304763960308,-2123,-778,271,4030,331,100683
12:14:25.512,4787,-987.3046875,50.78125,-109.375,0.03420845333908886,-0.05009094953223726,-0.01710422666954443,-2123,-778,271,4030,331,100683
12:14:25.532,4788,-988.28125,47.8515625,-114.2578125,0.0158824961931484,-0.0635299847725936,-0.012217304763960306,-2126,-783,278,4030,331,100683
12:14:25.553,4789,-992.1875,55.6640625,-117.1875,0.04153883619746505,-0.052534410485029326,-0.021991148575128554,-2126,-783,278,4030,331,100683
12:14:25.563,4790,-992.1875,45.8984375,-113.28125,0.06230825429619757,-0.058643062867009474,-0.01832595714594046,-2126,-783,278,4030,331,100683
12:14:25.583,4791,-981.4453125,33.203125,-121.09375,0.0830776723949301,-0.06230825429619757,0.007330382858376184,-2126,-783,278,4030,331,100683
12:14:25.604,4792,-980.46875,38.0859375,-123.046875,0.06475171524898964,-0.07696902001294993,0.012217304763960306,-2129,-778,260,4030,331,100683
12:14:25.624,4793,-981.4453125,49.8046875,-122.0703125,0.06841690667817772,-0.07574728953655392,0.012217304763960306,-2129,-778,260,4030,331,100683
12:14:25.655,4794,-986.328125,59.5703125,-110.3515625,0.07208209810736582,-0.08185594191853407,0.024434609527920613,-2129,-778,260,4030,331,100683
12:14:25.675,4795,-994.140625,41.9921875,-116.2109375,0.0989601685880785,-0.09285151620609834,0.025656340004316647,-2129,-778,260,4030,331,100683
12:14:25.695,4796,-988.28125,33.203125,-120.1171875,0.12461650859239513,-0.07819075048934597,0.04520402762665313,-2129,-778,260,4030,331,100683
12:14:25.716,4797,-987.3046875,41.015625,-124.0234375,0.10262536001726659,-0.08063421144213802,0.02809980095710871,-2131,-781,261,4030,331,100683
12:14:25.788,4798,-980.46875,44.921875,-118.1640625,0.07696902001294993,-0.07452555906015788,0.029321531433504737,-2131,-781,261,4030,331,100683
12:14:25.809,4799,-981.4453125,52.734375,-117.1875,0.0867428638241182,-0.0671951762017817,0.03787364476827696,-2131,-781,261,4030,331,100683
12:14:25.829,4800,-998.046875,51.7578125,-111.328125,0.09407324668249437,-0.0476474885794452,0.0635299847725936,-2131,-781,261,4030,331,100683
12:14:25.839,4801,-999.0234375,39.0625,-116.2109375,0.1038470904936626,-0.029321531433504737,0.07574728953655392,-2131,-781,261,4030,331,100683
12:14:25.860,4802,-988.28125,38.0859375,-113.28125,0.07208209810736582,-0.0317649923862968,0.06963863715457375,-2125,-773,253,4030,331,100681
12:14:25.880,4803,-991.2109375,36.1328125,-105.46875,0.03665191429188092,-0.039095375244672985,0.06597344572538566,-2125,-773,253,4030,331,100681
12:14:25.901,4804,-986.328125,31.25,-104.4921875,0.01832595714594046,-0.03665191429188092,0.07086036763096978,-2125,-773,253,4030,331,100681
12:14:25.911,4805,-975.5859375,34.1796875,-113.28125,0.010995574287564277,-0.03787364476827696,0.07208209810736582,-2125,-773,253,4030,331,100681
12:14:25.931,4806,-980.46875,45.8984375,-96.6796875,-0.014660765716752368,-0.039095375244672985,0.06230825429619757,-2122,-771,259,4030,331,100681
12:14:25.952,4807,-992.1875,43.9453125,-86.9140625,-0.0671951762017817,-0.052534410485029326,0.06108652381980154,-2122,-771,259,4030,331,100681
12:14:25.972,4808,-991.2109375,35.15625,-85.9375,-0.11850785621041499,-0.06597344572538566,0.05009094953223726,-2122,-771,259,4030,331,100681
12:14:25.992,4809,-980.46875,32.2265625,-96.6796875,-0.14416419621473164,-0.06475171524898964,0.03543018381548489,-2122,-771,259,4030,331,100681
12:14:26.3,4810,-983.3984375,44.921875,-103.515625,-0.18081611050661253,-0.0671951762017817,0.03420845333908886,-2122,-771,259,4030,331,100681
12:14:26.23,4811,-989.2578125,63.4765625,-96.6796875,-0.2345722514680379,-0.06475171524898964,0.021991148575128554,-2127,-772,264,4030,331,100681
12:14:26.44,4812,-999.0234375,54.6875,-106.4453125,-0.23701571242082997,-0.07330382858376185,0.0,-2127,-772,264,4030,331,100681
12:14:26.64,4813,-998.046875,47.8515625,-110.3515625,-0.24556782575560218,-0.07330382858376185,0.008552113334772215,-2127,-772,264,4030,331,100681
12:14:26.84,4814,-987.3046875,53.7109375,-112.3046875,-0.2736676267127109,-0.07452555906015788,-0.009773843811168246,-2127,-772,264,4030,331,100681
12:14:26.95,4815,-988.28125,75.1953125,-108.3984375,-0.31520646291017596,-0.06230825429619757,-0.012217304763960306,-2127,-772,264,4030,331,100681
12:14:26.115,4816,-989.2578125,79.1015625,-112.3046875,-0.29810223624063154,-0.05742133239061345,-0.019547687622336492,-2128,-774,257,4030,331,100681
12:14:26.136,4817,-975.5859375,86.9140625,-106.4453125,-0.2687807048071268,-0.051312680008633295,-0.013439035240356337,-2128,-774,257,4030,331,100681
12:14:26.156,4818,-961.9140625,100.5859375,-108.3984375,-0.25900686099595854,-0.05375614096142535,-0.025656340004316647,-2128,-774,257,4030,331,100681
12:14:26.166,4819,-959.9609375,108.3984375,-104.4921875,-0.23212879051524585,-0.04276056667386108,-0.0317649923862968,-2128,-774,257,4030,331,100681
12:14:26.187,4820,-976.5625,103.515625,-90.8203125,-0.18448130193580062,-0.04153883619746505,-0.01710422666954443,-2129,-767,266,4030,331,100681
12:14:26.207,4821,-989.2578125,81.0546875,-93.75,-0.13805554383275148,-0.0476474885794452,-0.006108652381980153,-2129,-767,266,4030,331,100681
12:14:26.228,4822,-1000.9765625,66.40625,-91.796875,-0.1502728485967118,-0.0671951762017817,0.010995574287564277,-2129,-767,266,4030,331,100681
12:14:26.248,4823,-1011.71875,64.453125,-101.5625,-0.2101376419401173,-0.09162978572970232,0.0158824961931484,-2129,-767,266,4030,331,100681
12:14:26.259,4824,-1015.625,77.1484375,-101.5625,-0.20158552860534507,-0.08185594191853407,0.007330382858376184,-2129,-767,266,4030,331,100681
12:14:26.279,4825,-1010.7421875,106.4453125,-99.609375,-0.1661553447898602,-0.09040805525330627,0.0024434609527920616,-2130,-776,256,4030,331,100681
12:14:26.300,4826,-998.046875,94.7265625,-90.8203125,-0.09407324668249437,-0.09651670763528641,0.013439035240356337,-2130,-776,256,4030,331,100681
12:14:26.320,4827,-994.140625,77.1484375,-104.4921875,-0.02809980095710871,-0.06108652381980154,0.0158824961931484,-2130,-776,256,4030,331,100681
12:14:26.330,4828,-978.515625,62.5,-105.46875,-0.0158824961931484,-0.05986479334340551,0.008552113334772215,-2130,-776,256,4030,331,100681
12:14:26.351,4829,-978.515625,52.734375,-99.609375,-0.029321531433504737,-0.03420845333908886,-0.0024434609527920616,-2130,-776,256,4030,331,100681
12:14:26.371,4830,-993.1640625,72.265625,-92.7734375,-0.07330382858376185,-0.026878070480712675,0.004886921905584123,-2126,-775,258,4030,331,100681
12:14:26.392,4831,-1003.90625,96.6796875,-85.9375,-0.048869219055841226,0.007330382858376184,0.009773843811168246,-2126,-775,258,4030,331,100681
12:14:26.413,4832,-995.1171875,86.9140625,-83.0078125,0.012217304763960306,0.009773843811168246,0.012217304763960306,-2126,-775,258,4030,331,100681
12:14:26.423,4833,-982.421875,72.265625,-88.8671875,0.04153883619746505,0.006108652381980153,0.026878070480712675,-2126,-775,258,4030,331,100681
12:14:26.443,4834,-975.5859375,52.734375,-93.75,0.010995574287564277,-0.013439035240356337,0.051312680008633295,-2126,-775,258,4030,331,100681
12:14:26.464,4835,-950.1953125,42.96875,-102.5390625,0.014660765716752368,-0.01710422666954443,0.06475171524898964,-2130,-774,277,4030,331,100681
12:14:26.505,4836,-942.3828125,36.1328125,-103.515625,-0.03787364476827696,-0.03665191429188092,0.09285151620609834,-2130,-774,277,4030,331,100681
12:14:26.515,4837,-945.3125,44.921875,-108.3984375,-0.09285151620609834,-0.052534410485029326,0.10995574287564278,-2130,-774,277,4030,331,100681
12:14:26.535,4838,-959.9609375,58.59375,-113.28125,-0.13316862192716736,-0.06841690667817772,0.10506882097005865,-2130,-774,277,4030,331,100681
12:14:26.555,4839,-979.4921875,65.4296875,-124.0234375,-0.1661553447898602,-0.0635299847725936,0.08552113334772216,-2125,-774,267,4030,331,100681
12:14:26.576,4840,-991.2109375,83.984375,-125.9765625,-0.20158552860534507,-0.06597344572538566,0.05742133239061345,-2125,-774,267,4030,331,100681
12:14:26.596,4841,-1005.859375,98.6328125,-129.8828125,-0.18570303241219668,-0.058643062867009474,0.025656340004316647,-2125,-774,267,4030,331,100681
12:14:26.606,4842,-1007.8125,86.9140625,-124.0234375,-0.1148426647812269,-0.02809980095710871,-0.01832595714594046,-2125,-774,267,4030,331,100681
12:14:26.627,4843,-1018.5546875,98.6328125,-123.046875,-0.07574728953655392,-0.02809980095710871,-0.05009094953223726,-2125,-774,267,4030,331,100681
12:14:26.647,4844,-998.046875,93.75,-111.328125,-0.08552113334772216,0.021991148575128554,-0.05742133239061345,-2124,-769,256,4030,331,100681
12:14:26.667,4845,-994.140625,114.2578125,-96.6796875,-0.09651670763528641,0.03543018381548489,-0.04276056667386108,-2124,-769,256,4030,331,100681
12:14:26.688,4846,-985.3515625,118.1640625,-91.796875,-0.13194689145077132,0.06230825429619757,-0.03665191429188092,-2124,-769,256,4030,331,100681
12:14:26.698,4847,-976.5625,125.9765625,-94.7265625,-0.12950343049797927,0.07086036763096978,-0.039095375244672985,-2124,-769,256,4030,331,100681
12:14:26.719,4848,-969.7265625,127.9296875,-88.8671875,-0.08185594191853407,0.06963863715457375,-0.008552113334772215,-2124,-769,256,4030,331,100681
12:14:26.740,4849,-963.8671875,133.7890625,-95.703125,-0.05009094953223726,0.025656340004316647,0.025656340004316647,-2128,-771,280,4030,331,100681
12:14:26.772,4850,-985.3515625,137.6953125,-92.7734375,-0.020769418098732523,0.029321531433504737,0.013439035240356337,-2128,-771,280,4030,331,100681
12:14:26.793,4851,-995.1171875,147.4609375,-98.6328125,0.04398229715025711,0.024434609527920613,0.02809980095710871,-2128,-771,280,4030,331,100681
12:14:26.813,4852,-1000.9765625,152.34375,-101.5625,0.1038470904936626,0.01710422666954443,0.0012217304763960308,-2128,-771,280,4030,331,100682
12:14:26.834,4853,-1022.4609375,155.2734375,-114.2578125,0.15149457907310784,-0.05742133239061345,0.0024434609527920616,-2127,-776,281,4030,331,100682
12:14:26.844,4854,-1026.3671875,143.5546875,-106.4453125,0.1893682238413848,-0.05497787143782139,-0.021991148575128554,-2127,-776,281,4030,331,100682
12:14:26.864,4855,-1008.7890625,139.6484375,-116.2109375,0.2675589743307307,-0.05742133239061345,-0.02809980095710871,-2127,-776,281,4030,331,100682
12:14:26.885,4856,-982.421875,122.0703125,-121.09375,0.35674529910764097,-0.048869219055841226,-0.048869219055841226,-2127,-776,281,4030,331,100682
12:14:26.925,4857,-967.7734375,101.5625,-112.3046875,0.3872885610175418,-0.07574728953655392,-0.03665191429188092,-2127,-776,281,4030,331,100682
12:14:26.936,4858,-969.7265625,71.2890625,-100.5859375,0.42516220578581876,-0.07452555906015788,0.020769418098732523,-2128,-777,271,4030,331,100682
12:14:26.956,4859,-968.75,46.875,-93.75,0.4569271981721155,-0.07696902001294993,0.07452555906015788,-2128,-777,271,4030,331,100682
12:14:26.976,4860,-968.75,55.6640625,-77.1484375,0.40194932673429407,-0.052534410485029326,0.1038470904936626,-2128,-777,271,4030,331,100682
12:14:26.997,4861,-968.75,67.3828125,-73.2421875,0.31154127148098787,-0.04276056667386108,0.11239920382843484,-2128,-777,271,4030,331,100682
12:14:27.7,4862,-991.2109375,75.1953125,-62.5,0.23945917337362205,-0.05497787143782139,0.13316862192716736,-2128,-777,271,4030,331,100682
12:14:27.28,4863,-994.140625,64.453125,-88.8671875,0.20647245051092922,-0.06108652381980154,0.10995574287564278,-2130,-772,267,4030,331,100682
12:14:27.49,4864,-991.2109375,53.7109375,-117.1875,0.2345722514680379,-0.08063421144213802,0.07696902001294993,-2130,-772,267,4030,331,100682
12:14:27.69,4865,-987.3046875,50.78125,-124.0234375,0.2113593724165133,-0.09162978572970232,0.0635299847725936,-2130,-772,267,4030,331,100682
12:14:27.89,4866,-986.328125,49.8046875,-128.90625,0.1942551457469689,-0.07574728953655392,0.024434609527920613,-2130,-772,267,4030,331,100682
12:14:27.100,4867,-992.1875,53.7109375,-126.953125,0.197920337176157,-0.07696902001294993,-0.009773843811168246,-2125,-764,259,4030,331,100682
12:14:27.192,4868,-994.140625,48.828125,-130.859375,0.20647245051092922,-0.07086036763096978,-0.024434609527920613,-2125,-764,259,4030,331,100682
12:14:27.213,4869,-998.046875,56.640625,-129.8828125,0.17715091907742447,-0.07086036763096978,-0.04398229715025711,-2125,-764,259,4030,331,100682
12:14:27.233,4870,-992.1875,64.453125,-124.0234375,0.12828170002158323,-0.05986479334340551,-0.07086036763096978,-2125,-764,259,4030,331,100682
12:14:27.254,4871,-997.0703125,76.171875,-133.7890625,0.10629055144645469,-0.024434609527920613,-0.09285151620609834,-2125,-764,259,4030,331,100682
12:14:27.265,4872,-993.1640625,98.6328125,-131.8359375,0.1075122819228507,-0.03298672286269283,-0.0867428638241182,-2130,-762,247,4030,331,100682
12:14:27.285,4873,-991.2109375,110.3515625,-127.9296875,0.08552113334772216,-0.03665191429188092,-0.07574728953655392,-2130,-762,247,4030,331,100682
12:14:27.305,4874,-984.375,115.234375,-132.8125,0.12828170002158323,-0.04153883619746505,-0.08918632477691024,-2130,-762,247,4030,331,100682
12:14:27.326,4875,-972.65625,117.1875,-130.859375,0.17715091907742447,-0.052534410485029326,-0.07452555906015788,-2130,-762,247,4030,331,100682
12:14:27.336,4876,-977.5390625,98.6328125,-116.2109375,0.2467895562319982,-0.06108652381980154,-0.05986479334340551,-2130,-762,247,4030,331,100682
12:14:27.356,4877,-994.140625,74.21875,-99.609375,0.2883283924294633,-0.04276056667386108,-0.06597344572538566,-2124,-766,260,4030,331,100682
12:14:27.377,4878,-999.0234375,60.546875,-98.6328125,0.2919935838586513,-0.024434609527920613,-0.058643062867009474,-2124,-766,260,4030,331,100682
12:14:27.397,4879,-993.1640625,50.78125,-101.5625,0.2822197400474831,-0.006108652381980153,-0.06230825429619757,-2124,-766,260,4030,331,100682
12:14:27.407,4880,-991.2109375,45.8984375,-110.3515625,0.2504547476611863,-0.006108652381980153,-0.05009094953223726,-2124,-766,260,4030,331,100682
12:14:27.427,4881,-982.421875,36.1328125,-105.46875,0.23701571242082997,0.0012217304763960308,-0.03787364476827696,-2127,-768,260,4030,331,100682
12:14:27.448,4882,-972.65625,15.625,-104.4921875,0.2186897552748895,0.0,-0.008552113334772215,-2127,-768,260,4030,331,100682
12:14:27.468,4883,-971.6796875,13.671875,-95.703125,0.2101376419401173,-0.007330382858376184,0.008552113334772215,-2127,-768,260,4030,331,100682
12:14:27.489,4884,-974.609375,1.953125,-95.703125,0.11972958668681102,0.006108652381980153,0.03420845333908886,-2127,-768,260,4030,331,100682
12:14:27.499,4885,-969.7265625,9.765625,-85.9375,0.06230825429619757,-0.012217304763960306,0.04153883619746505,-2127,-768,260,4030,331,100682
12:14:27.520,4886,-963.8671875,8.7890625,-93.75,-0.010995574287564277,-0.0158824961931484,0.04398229715025711,-2126,-768,266,4030,331,100682
12:14:27.540,4887,-962.890625,24.4140625,-101.5625,-0.0671951762017817,-0.024434609527920613,0.052534410485029326,-2126,-768,266,4030,331,100682
12:14:27.560,4888,-969.7265625,32.2265625,-117.1875,-0.1075122819228507,-0.04398229715025711,0.05375614096142535,-2126,-768,266,4030,331,100682
12:14:27.611,4889,-975.5859375,40.0390625,-112.3046875,-0.1343903524035634,-0.04153883619746505,0.0635299847725936,-2126,-768,266,4030,331,100682
12:14:27.632,4890,-985.3515625,60.546875,-124.0234375,-0.12828170002158323,-0.052534410485029326,0.0317649923862968,-2126,-768,266,4030,331,100682
12:14:27.653,4891,-992.1875,81.0546875,-127.9296875,-0.13805554383275148,-0.04398229715025711,0.0317649923862968,-2127,-767,247,4030,331,100682
12:14:27.663,4892,-1004.8828125,111.328125,-130.859375,-0.09285151620609834,-0.05497787143782139,0.009773843811168246,-2127,-767,247,4030,331,100682
12:14:27.683,4893,-1019.53125,93.75,-126.953125,-0.029321531433504737,-0.0635299847725936,0.008552113334772215,-2127,-767,247,4030,331,100682
12:14:27.703,4894,-1012.6953125,67.3828125,-134.765625,0.04031710572106901,-0.03298672286269283,-0.014660765716752368,-2127,-767,247,4030,331,100682
12:14:27.724,4895,-1000.0,54.6875,-138.671875,0.02809980095710871,-0.02809980095710871,-0.029321531433504737,-2125,-766,250,4030,331,100682
12:14:27.745,4896,-974.609375,55.6640625,-131.8359375,0.0024434609527920616,-0.02809980095710871,-0.03420845333908886,-2125,-766,250,4030,331,100682
12:14:27.755,4897,-967.7734375,55.6640625,-109.375,-0.010995574287564277,-0.020769418098732523,-0.029321531433504737,-2125,-766,250,4030,331,100682
12:14:27.775,4898,-966.796875,56.640625,-104.4921875,0.014660765716752368,-0.0012217304763960308,-0.0158824961931484,-2125,-766,250,4030,331,100682
12:14:27.796,4899,-968.75,35.15625,-93.75,0.006108652381980153,-0.013439035240356337,0.0024434609527920616,-2125,-766,250,4030,331,100682
12:14:27.816,4900,-969.7265625,25.390625,-89.84375,-0.08796459430051422,-0.03298672286269283,0.04276056667386108,-2123,-765,261,4030,331,100682
12:14:27.837,4901,-973.6328125,22.4609375,-99.609375,-0.17959438003021652,-0.04520402762665313,0.03298672286269283,-2123,-765,261,4030,331,100682
12:14:27.847,4902,-977.5390625,40.0390625,-96.6796875,-0.23945917337362205,-0.058643062867009474,0.0317649923862968,-2123,-765,261,4042,331,100684
12:14:27.868,4903,-976.5625,46.875,-106.4453125,-0.3066543495754037,-0.05375614096142535,0.021991148575128554,-2123,-765,261,4042,331,100684
12:14:27.888,4904,-986.328125,83.0078125,-109.375,-0.3200933848157601,-0.0635299847725936,0.007330382858376184,-2123,-765,261,4042,331,100684
12:14:27.909,4905,-998.046875,104.4921875,-116.2109375,-0.29810223624063154,-0.0830776723949301,-0.026878070480712675,-2131,-769,261,4042,331,100684
12:14:27.919,4906,-996.09375,116.2109375,-127.9296875,-0.23945917337362205,-0.09040805525330627,-0.07696902001294993,-2131,-769,261,4042,331,100684
12:14:27.940,4907,-993.1640625,126.953125,-133.7890625,-0.16371188383706814,-0.09285151620609834,-0.10140362954087055,-2131,-769,261,4042,331,100684
12:14:27.960,4908,-998.046875,110.3515625,-136.71875,-0.06230825429619757,-0.0830776723949301,-0.1075122819228507,-2131,-769,261,4042,331,100684
12:14:27.981,4909,-1000.9765625,84.9609375,-145.5078125,0.0158824961931484,-0.0671951762017817,-0.11362093430483088,-2128,-768,262,4042,331,100684
12:14:28.1,4910,-1002.9296875,78.125,-138.671875,0.025656340004316647,-0.05497787143782139,-0.10873401239924674,-2128,-768,262,4042,331,100684
12:14:28.12,4911,-978.515625,82.03125,-131.8359375,-0.01832595714594046,-0.014660765716752368,-0.07574728953655392,-2128,-768,262,4042,331,100684
12:14:28.32,4912,-966.796875,87.890625,-121.09375,-0.012217304763960306,-0.010995574287564277,-0.03787364476827696,-2128,-768,262,4042,331,100684
12:14:28.53,4913,-975.5859375,89.84375,-123.046875,0.004886921905584123,0.021991148575128554,0.010995574287564277,-2128,-768,262,4042,331,100684
12:14:28.73,4914,-978.515625,97.65625,-103.515625,0.029321531433504737,0.03665191429188092,0.023212879051524585,-2126,-777,263,4042,331,100684
12:14:28.83,4915,-965.8203125,106.4453125,-100.5859375,0.0635299847725936,0.003665191429188092,0.06108652381980154,-2126,-777,263,4042,331,100684
12:14:28.103,4916,-977.5390625,89.84375,-86.9140625,0.08552113334772216,-0.004886921905584123,0.08185594191853407,-2126,-777,263,4042,331,100684
12:14:28.123,4917,-987.3046875,80.078125,-85.9375,0.09407324668249437,-0.025656340004316647,0.0867428638241182,-2126,-777,263,4042,331,100684
12:14:28.143,4918,-998.046875,83.984375,-105.46875,0.10995574287564278,-0.026878070480712675,0.05986479334340551,-2126,-777,263,4042,331,100684
12:14:28.164,4919,-986.328125,92.7734375,-116.2109375,0.12095131716320705,-0.058643062867009474,0.05497787143782139,-2129,-763,268,4042,331,100684
12:14:28.174,4920,-998.046875,57.6171875,-115.234375,0.15149457907310784,-0.08063421144213802,0.04153883619746505,-2129,-763,268,4042,331,100684
12:14:28.194,4921,-1002.9296875,32.2265625,-129.8828125,0.20036379812894903,-0.07941248096574201,0.048869219055841226,-2129,-763,268,4042,331,100684
12:14:28.215,4922,-1004.8828125,14.6484375,-127.9296875,0.1893682238413848,-0.07574728953655392,0.05497787143782139,-2129,-763,268,4042,331,100684
12:14:28.235,4923,-1001.953125,5.859375,-129.8828125,0.12217304763960309,-0.06475171524898964,0.04276056667386108,-2129,-763,268,4042,331,100684
12:14:28.256,4924,-992.1875,7.8125,-133.7890625,0.058643062867009474,-0.05375614096142535,0.026878070480712675,-2125,-768,266,4042,331,100684
12:14:28.266,4925,-978.515625,17.578125,-133.7890625,0.007330382858376184,-0.03298672286269283,0.04153883619746505,-2125,-768,266,4042,331,100684
12:14:28.286,4926,-960.9375,41.9921875,-128.90625,-0.026878070480712675,-0.024434609527920613,0.048869219055841226,-2125,-768,266,4042,331,100684
12:14:28.327,4927,-961.9140625,46.875,-125.9765625,-0.0635299847725936,-0.020769418098732523,0.04398229715025711,-2125,-768,266,4042,331,100684
12:14:28.348,4928,-965.8203125,51.7578125,-122.0703125,-0.05497787143782139,-0.020769418098732523,0.04276056667386108,-2129,-766,257,4042,331,100684
12:14:28.358,4929,-973.6328125,57.6171875,-118.1640625,-0.05619960191421742,-0.013439035240356337,0.039095375244672985,-2129,-766,257,4042,331,100684
12:14:28.379,4930,-976.5625,52.734375,-108.3984375,-0.05986479334340551,-0.01710422666954443,0.020769418098732523,-2129,-766,257,4042,331,100684
12:14:28.399,4931,-978.515625,39.0625,-118.1640625,-0.051312680008633295,-0.04031710572106901,0.023212879051524585,-2129,-766,257,4042,331,100684
12:14:28.420,4932,-979.4921875,54.6875,-106.4453125,-0.09773843811168245,-0.052534410485029326,0.0158824961931484,-2129,-766,257,4042,331,100684
12:14:28.430,4933,-979.4921875,47.8515625,-101.5625,-0.1270599695451872,-0.07941248096574201,0.012217304763960306,-2126,-764,255,4042,331,100684
12:14:28.451,4934,-988.28125,45.8984375,-118.1640625,-0.15271630954950383,-0.07574728953655392,-0.006108652381980153,-2126,-764,255,4042,331,100684
12:14:28.472,4935,-994.140625,40.0390625,-125.0,-0.1905899543177808,-0.08552113334772216,-0.01710422666954443,-2126,-764,255,4042,331,100684
12:14:28.492,4936,-991.2109375,54.6875,-130.859375,-0.2186897552748895,-0.08185594191853407,-0.03054326190990077,-2126,-764,255,4042,331,100684
12:14:28.513,4937,-989.2578125,65.4296875,-124.0234375,-0.2504547476611863,-0.07452555906015788,-0.04520402762665313,-2126,-764,255,4042,331,100684
12:14:28.523,4938,-983.3984375,78.125,-127.9296875,-0.2296853295624538,-0.06108652381980154,-0.0671951762017817,-2129,-763,254,4042,331,100684
12:14:28.543,4939,-994.140625,84.9609375,-121.09375,-0.2138028333693054,-0.0476474885794452,-0.06475171524898964,-2129,-763,254,4042,331,100684
12:14:28.564,4940,-996.09375,96.6796875,-116.2109375,-0.20402898955813717,-0.03420845333908886,-0.07452555906015788,-2129,-763,254,4042,331,100684
12:14:28.594,4941,-996.09375,97.65625,-116.2109375,-0.1942551457469689,-0.03298672286269283,-0.05375614096142535,-2129,-763,254,4042,331,100684
12:14:28.615,4942,-990.234375,90.8203125,-113.28125,-0.1820378409830086,-0.026878070480712675,-0.04276056667386108,-2127,-767,269,4042,331,100684
12:14:28.635,4943,-986.328125,82.03125,-116.2109375,-0.15760323145508798,-0.03420845333908886,-0.026878070480712675,-2127,-767,269,4042,331,100684
12:14:28.656,4944,-975.5859375,79.1015625,-124.0234375,-0.15271630954950383,-0.03420845333908886,-0.008552113334772215,-2127,-767,269,4042,331,100684
12:14:28.677,4945,-968.75,72.265625,-116.2109375,-0.1343903524035634,-0.025656340004316647,0.010995574287564277,-2127,-767,269,4042,331,100684
12:14:28.687,4946,-964.84375,64.453125,-116.2109375,-0.15149457907310784,-0.029321531433504737,0.058643062867009474,-2127,-767,269,4042,331,100684
12:14:28.708,4947,-979.4921875,60.546875,-103.515625,-0.1893682238413848,-0.03665191429188092,0.10140362954087055,-2129,-767,265,4042,331,100684
12:14:28.749,4948,-985.3515625,59.5703125,-108.3984375,-0.24434609527920617,-0.03420845333908886,0.1356120828799594,-2129,-767,265,4042,331,100684
12:14:28.759,4949,-989.2578125,80.078125,-114.2578125,-0.2162462943220974,-0.06475171524898964,0.11850785621041499,-2129,-767,265,4042,331,100684
