Timestamp,SampleNr,AccX [mg],AccY [mg],AccZ [mg],GyrX [rad/s],GyrY [rad/s],GyrZ [rad/s],MagX [mGs],MagY [mGs],-MagZ [mGs],Battery [mV],Temperature [0.1C],Pressure[Pa]
12:18:26.745,16854,-146.484375,325.1953125,-925.78125,-0.006108652381980153,-0.07941248096574201,-0.020769418098732523,-1824,-1646,-922,3878,311,100639
12:18:26.755,16855,-143.5546875,310.546875,-925.78125,-0.009773843811168246,-0.07208209810736582,-0.020769418098732523,-1824,-1646,-922,3878,311,100639
12:18:26.776,16856,-139.6484375,308.59375,-917.96875,-0.06475171524898964,-0.07086036763096978,0.0,-1824,-1649,-920,3878,311,100639
12:18:26.786,16857,-145.5078125,315.4296875,-914.0625,-0.1551597705022959,-0.06230825429619757,-0.021991148575128554,-1824,-1649,-920,3878,311,100639
12:18:26.806,16858,-147.4609375,334.9609375,-910.15625,-0.1270599695451872,-0.058643062867009474,-0.0317649923862968,-1824,-1649,-920,3878,311,100639
12:18:26.919,16859,-142.578125,323.2421875,-918.9453125,-0.03665191429188092,-0.0476474885794452,-0.01710422666954443,-1824,-1649,-920,3878,311,100639
12:18:26.940,16860,-144.53125,305.6640625,-925.78125,0.0158824961931484,-0.04398229715025711,-0.003665191429188092,-1824,-1649,-920,3878,311,100639
12:18:26.950,16861,-139.6484375,295.8984375,-923.828125,-0.07819075048934597,-0.058643062867009474,0.012217304763960306,-1827,-1649,-928,3878,311,100639
12:18:26.970,16862,-148.4375,320.3125,-927.734375,-0.17592918860102844,-0.0635299847725936,0.004886921905584123,-1827,-1649,-928,3878,311,100639
12:18:26.991,16863,-141.6015625,351.5625,-926.7578125,-0.16859880574265224,-0.05009094953223726,-0.010995574287564277,-1827,-1649,-928,3878,311,100639
12:18:27.11,16864,-152.34375,323.2421875,-916.9921875,-0.08796459430051422,-0.04520402762665313,-0.023212879051524585,-1827,-1649,-928,3878,311,100639
12:18:27.32,16865,-144.53125,313.4765625,-918.9453125,-0.07330382858376185,-0.04642575810304917,-0.029321531433504737,-1827,-1649,-928,3878,311,100639
12:18:27.42,16866,-139.6484375,323.2421875,-933.59375,-0.1111774733520388,-0.052534410485029326,-0.010995574287564277,-1826,-1646,-916,3878,311,100639
12:18:27.63,16867,-141.6015625,330.078125,-931.640625,-0.10262536001726659,-0.048869219055841226,-0.023212879051524585,-1826,-1646,-916,3878,311,100639
12:18:27.83,16868,-143.5546875,333.984375,-931.640625,-0.10262536001726659,-0.04153883619746505,-0.029321531433504737,-1826,-1646,-916,3878,311,100639
12:18:27.103,16869,-134.765625,337.890625,-926.7578125,-0.09162978572970232,-0.051312680008633295,-0.03420845333908886,-1826,-1646,-916,3878,311,100639
12:18:27.113,16870,-140.625,335.9375,-922.8515625,-0.07086036763096978,-0.05375614096142535,-0.021991148575128554,-1818,-1645,-933,3878,311,100639
12:18:27.133,16871,-139.6484375,331.0546875,-930.6640625,-0.07941248096574201,-0.06108652381980154,-0.010995574287564277,-1818,-1645,-933,3878,311,100639
12:18:27.154,16872,-134.765625,337.890625,-928.7109375,-0.10262536001726659,-0.07696902001294993,-0.0158824961931484,-1818,-1645,-933,3878,311,100639
12:18:27.174,16873,-137.6953125,348.6328125,-926.7578125,-0.0867428638241182,-0.05497787143782139,-0.023212879051524585,-1818,-1645,-933,3878,311,100639
12:18:27.195,16874,-138.671875,327.1484375,-918.9453125,-0.07941248096574201,-0.04398229715025711,-0.04153883619746505,-1818,-1645,-933,3878,311,100639
12:18:27.205,16875,-131.8359375,321.2890625,-929.6875,-0.09162978572970232,-0.048869219055841226,-0.05619960191421742,-1827,-1644,-922,3878,311,100639
12:18:27.226,16876,-134.765625,342.7734375,-955.078125,-0.11239920382843484,-0.0476474885794452,-0.03665191429188092,-1827,-1644,-922,3878,311,100639
12:18:27.246,16877,-135.7421875,326.171875,-945.3125,-0.06475171524898964,-0.07086036763096978,-0.023212879051524585,-1827,-1644,-922,3878,311,100640
12:18:27.267,16878,-139.6484375,324.21875,-937.5,-0.08185594191853407,-0.06230825429619757,-0.0317649923862968,-1827,-1644,-922,3878,311,100640
12:18:27.277,16879,-137.6953125,344.7265625,-945.3125,-0.08796459430051422,-0.0830776723949301,-0.0317649923862968,-1827,-1644,-922,3878,311,100640
12:18:27.298,16880,-131.8359375,330.078125,-943.359375,-0.048869219055841226,-0.07696902001294993,-0.04520402762665313,-1823,-1639,-923,3878,311,100640
12:18:27.318,16881,-140.625,323.2421875,-962.890625,-0.0830776723949301,-0.07696902001294993,-0.03665191429188092,-1823,-1639,-923,3878,311,100640
12:18:27.339,16882,-139.6484375,330.078125,-957.03125,-0.09651670763528641,-0.09040805525330627,-0.01710422666954443,-1823,-1639,-923,3878,311,100640
12:18:27.359,16883,-140.625,357.421875,-939.453125,-0.07208209810736582,-0.1075122819228507,-0.020769418098732523,-1823,-1639,-923,3878,311,100640
12:18:27.370,16884,-145.5078125,359.375,-939.453125,-0.03298672286269283,-0.11606439525762292,-0.039095375244672985,-1823,-1642,-925,3878,311,100640
12:18:27.390,16885,-141.6015625,340.8203125,-933.59375,-0.04153883619746505,-0.11606439525762292,-0.06108652381980154,-1823,-1642,-925,3878,311,100640
12:18:27.410,16886,-139.6484375,342.7734375,-929.6875,-0.06230825429619757,-0.11728612573401895,-0.07574728953655392,-1823,-1642,-925,3878,311,100640
12:18:27.431,16887,-143.5546875,332.03125,-917.96875,-0.06963863715457375,-0.1111774733520388,-0.07452555906015788,-1823,-1642,-925,3878,311,100640
12:18:27.451,16888,-149.4140625,321.2890625,-914.0625,-0.09040805525330627,-0.10873401239924674,-0.08185594191853407,-1823,-1642,-925,3878,311,100640
12:18:27.461,16889,-146.484375,322.265625,-908.203125,-0.12583823906879116,-0.10018189906447451,-0.07696902001294993,-1828,-1644,-924,3878,311,100640
12:18:27.481,16890,-147.4609375,317.3828125,-905.2734375,-0.0989601685880785,-0.10506882097005865,-0.06475171524898964,-1828,-1644,-924,3878,311,100640
12:18:27.502,16891,-148.4375,324.21875,-916.015625,-0.10018189906447451,-0.10629055144645469,-0.05375614096142535,-1828,-1644,-924,3878,311,100640
12:18:27.522,16892,-149.4140625,321.2890625,-922.8515625,-0.09651670763528641,-0.08918632477691024,-0.07330382858376185,-1828,-1644,-924,3878,311,100640
12:18:27.532,16893,-146.484375,315.4296875,-914.0625,-0.08552113334772216,-0.08796459430051422,-0.07330382858376185,-1828,-1644,-924,3878,311,100640
12:18:27.553,16894,-159.1796875,304.6875,-908.203125,-0.07208209810736582,-0.06597344572538566,-0.0671951762017817,-1828,-1644,-930,3878,311,100640
12:18:27.573,16895,-152.34375,321.2890625,-915.0390625,-0.0867428638241182,-0.051312680008633295,-0.058643062867009474,-1828,-1644,-930,3878,311,100640
12:18:27.593,16896,-147.4609375,312.5,-910.15625,-0.04642575810304917,-0.06597344572538566,-0.03054326190990077,-1828,-1644,-930,3878,311,100640
12:18:27.614,16897,-155.2734375,315.4296875,-925.78125,-0.07696902001294993,-0.05986479334340551,-0.025656340004316647,-1828,-1644,-930,3878,311,100640
12:18:27.624,16898,-151.3671875,324.21875,-925.78125,-0.07696902001294993,-0.0671951762017817,-0.03420845333908886,-1829,-1646,-905,3878,311,100640
12:18:27.645,16899,-148.4375,333.984375,-920.8984375,-0.09407324668249437,-0.07696902001294993,-0.04031710572106901,-1829,-1646,-905,3878,311,100640
12:18:27.665,16900,-151.3671875,329.1015625,-920.8984375,-0.06841690667817772,-0.05497787143782139,-0.0317649923862968,-1829,-1646,-905,3878,311,100640
12:18:27.686,16901,-156.25,332.03125,-915.0390625,-0.07452555906015788,-0.07208209810736582,-0.0317649923862968,-1829,-1646,-905,3878,311,100640
12:18:27.696,16902,-141.6015625,333.984375,-916.9921875,-0.09162978572970232,-0.0635299847725936,-0.048869219055841226,-1829,-1646,-905,3878,311,100640
12:18:27.716,16903,-150.390625,344.7265625,-925.78125,-0.06597344572538566,-0.05497787143782139,-0.04398229715025711,-1827,-1648,-920,3878,311,100640
12:18:27.737,16904,-149.4140625,326.171875,-914.0625,-0.052534410485029326,-0.06841690667817772,-0.052534410485029326,-1827,-1648,-920,3878,311,100640
12:18:27.757,16905,-150.390625,312.5,-903.3203125,-0.1111774733520388,-0.06475171524898964,-0.05009094953223726,-1827,-1648,-920,3878,311,100640
12:18:27.777,16906,-154.296875,344.7265625,-913.0859375,-0.11972958668681102,-0.05619960191421742,-0.06475171524898964,-1827,-1648,-920,3878,311,100640
12:18:27.788,16907,-155.2734375,338.8671875,-902.34375,-0.0476474885794452,-0.03787364476827696,-0.051312680008633295,-1827,-1648,-920,3878,311,100640
12:18:27.808,16908,-147.4609375,305.6640625,-892.578125,-0.006108652381980153,-0.0317649923862968,-0.039095375244672985,-1829,-1642,-918,3878,311,100640
12:18:27.828,16909,-153.3203125,309.5703125,-886.71875,-0.09773843811168245,-0.021991148575128554,-0.0476474885794452,-1829,-1642,-918,3878,311,100640
12:18:27.849,16910,-149.4140625,329.1015625,-908.203125,-0.10018189906447451,-0.010995574287564277,-0.025656340004316647,-1829,-1642,-918,3878,311,100640
12:18:27.869,16911,-146.484375,330.078125,-891.6015625,-0.0317649923862968,0.012217304763960306,-0.03298672286269283,-1829,-1642,-918,3878,311,100640
12:18:27.879,16912,-144.53125,306.640625,-887.6953125,-0.04520402762665313,0.009773843811168246,-0.0317649923862968,-1826,-1643,-916,3878,311,100640
12:18:27.899,16913,-140.625,328.125,-906.25,-0.11728612573401895,0.02809980095710871,-0.05009094953223726,-1826,-1643,-916,3878,311,100640
12:18:27.920,16914,-147.4609375,342.7734375,-938.4765625,-0.03787364476827696,0.05619960191421742,-0.04276056667386108,-1826,-1643,-916,3878,311,100640
12:18:27.941,16915,-138.671875,329.1015625,-947.265625,0.02809980095710871,0.058643062867009474,-0.03054326190990077,-1826,-1643,-916,3878,311,100640
12:18:27.951,16916,-127.9296875,322.265625,-965.8203125,0.02809980095710871,0.04153883619746505,-0.01832595714594046,-1826,-1643,-916,3878,311,100640
12:18:27.972,16917,-127.9296875,317.3828125,-991.2109375,-0.03298672286269283,0.007330382858376184,-0.0158824961931484,-1823,-1648,-921,3878,311,100640
12:18:27.992,16918,-125.9765625,333.984375,-965.8203125,-0.07941248096574201,-0.03054326190990077,-0.013439035240356337,-1823,-1648,-921,3878,311,100640
12:18:28.12,16919,-133.7890625,355.46875,-937.5,-0.11606439525762292,-0.03420845333908886,-0.025656340004316647,-1823,-1648,-921,3878,311,100640
12:18:28.33,16920,-142.578125,375.0,-929.6875,-0.09773843811168245,-0.04153883619746505,-0.04031710572106901,-1823,-1648,-921,3878,311,100640
12:18:28.43,16921,-131.8359375,361.328125,-874.0234375,0.0024434609527920616,-0.023212879051524585,-0.0635299847725936,-1823,-1648,-921,3878,311,100640
12:18:28.63,16922,-130.859375,332.03125,-820.3125,-0.014660765716752368,0.010995574287564277,-0.10506882097005865,-1819,-1649,-927,3878,311,100640
12:18:28.83,16923,-143.5546875,311.5234375,-786.1328125,-0.09407324668249437,0.04153883619746505,-0.14538592669112765,-1819,-1649,-927,3878,311,100640
12:18:28.103,16924,-144.53125,308.59375,-770.5078125,-0.09407324668249437,0.09162978572970232,-0.1466076571675237,-1819,-1649,-927,3878,311,100640
12:18:28.124,16925,-140.625,271.484375,-740.234375,-0.12950343049797927,0.1820378409830086,-0.1502728485967118,-1819,-1649,-927,3878,311,100640
12:18:28.134,16926,-138.671875,254.8828125,-735.3515625,-0.2235766771804736,0.2504547476611863,-0.11728612573401895,-1819,-1649,-927,3878,311,100640
12:18:28.154,16927,-137.6953125,273.4375,-775.390625,-0.2895501229058593,0.3274237676741363,-0.08796459430051422,-1806,-1650,-942,3872,311,100639
12:18:28.174,16928,-124.0234375,312.5,-840.8203125,-0.1820378409830086,0.395840674352314,-0.052534410485029326,-1806,-1650,-942,3872,311,100639
12:18:28.246,16929,-92.7734375,282.2265625,-882.8125,-0.07330382858376185,0.4276056667386108,-0.04276056667386108,-1806,-1650,-942,3872,311,100639
12:18:28.266,16930,-88.8671875,285.15625,-886.71875,-0.09773843811168245,0.41416663149825445,-0.021991148575128554,-1806,-1650,-942,3872,311,100639
12:18:28.287,16931,-75.1953125,334.9609375,-882.8125,-0.003665191429188092,0.40317105721069013,0.01710422666954443,-1804,-1648,-912,3872,311,100639
12:18:28.307,16932,-66.40625,328.125,-865.234375,0.1661553447898602,0.4202752838802346,0.026878070480712675,-1804,-1648,-912,3872,311,100639
12:18:28.317,16933,-42.96875,294.921875,-834.9609375,0.2431243648028101,0.47403142484165994,-0.008552113334772215,-1804,-1648,-912,3872,311,100639
12:18:28.338,16934,-13.671875,290.0390625,-780.2734375,0.16982053621904827,0.5094616086571448,-0.026878070480712675,-1804,-1648,-912,3872,311,100639
12:18:28.358,16935,3.90625,275.390625,-733.3984375,0.13316862192716736,0.5913175505756788,-0.04520402762665313,-1804,-1648,-912,3872,311,100639
12:18:28.379,16936,-39.0625,259.765625,-744.140625,0.05986479334340551,0.6805038753525892,-0.04276056667386108,-1783,-1649,-916,3872,311,100639
12:18:28.389,16937,-0.0,327.1484375,-754.8828125,-0.10140362954087055,0.7525859734599549,-0.04398229715025711,-1783,-1649,-916,3872,311,100639
12:18:28.410,16938,60.546875,336.9140625,-796.875,0.009773843811168246,0.8087855753741724,0.003665191429188092,-1783,-1649,-916,3872,311,100639
12:18:28.430,16939,47.8515625,299.8046875,-770.5078125,0.16126842288427604,0.8600982553828056,-0.03665191429188092,-1783,-1649,-916,3872,311,100639
12:18:28.450,16940,66.40625,253.90625,-759.765625,0.09651670763528641,0.9162978572970231,-0.10262536001726659,-1783,-1649,-916,3872,311,100639
12:18:28.470,16941,71.2890625,282.2265625,-849.609375,-0.0024434609527920616,0.9761626506404286,-0.09407324668249437,-1745,-1654,-893,3872,311,100639
12:18:28.481,16942,127.9296875,313.4765625,-915.0390625,0.09773843811168245,1.0225884087434776,-0.05009094953223726,-1745,-1654,-893,3872,311,100639
12:18:28.501,16943,139.6484375,274.4140625,-904.296875,0.16371188383706814,1.03114052207825,-0.039095375244672985,-1745,-1654,-893,3872,311,100639
12:18:28.521,16944,172.8515625,263.671875,-856.4453125,0.051312680008633295,1.0140362954087057,-0.05497787143782139,-1745,-1654,-893,3872,311,100639
12:18:28.542,16945,188.4765625,266.6015625,-860.3515625,-0.11362093430483088,0.994488607786369,-0.01832595714594046,-1711,-1662,-900,3872,311,100639
12:18:28.562,16946,221.6796875,317.3828125,-937.5,-0.04031710572106901,1.029918791601854,0.006108652381980153,-1711,-1662,-900,3872,311,100639
12:18:28.572,16947,224.609375,291.015625,-923.828125,0.07452555906015788,1.0604620535117548,0.014660765716752368,-1711,-1662,-900,3872,311,100639
12:18:28.592,16948,280.2734375,231.4453125,-858.3984375,-0.1111774733520388,1.0580185925589627,-0.014660765716752368,-1711,-1662,-900,3872,311,100639
12:18:28.613,16949,293.9453125,283.203125,-847.65625,-0.38484510006474965,1.0531316706533784,-0.03298672286269283,-1711,-1662,-900,3872,311,100639
12:18:28.633,16950,290.0390625,315.4296875,-863.28125,-0.33964107243809655,1.0885618544688633,-0.03054326190990077,-1668,-1663,-895,3872,311,100639
12:18:28.654,16951,375.9765625,300.78125,-830.078125,-0.16737707526625623,1.1423179954302887,-0.008552113334772215,-1668,-1663,-895,3872,311,100639
12:18:28.664,16952,396.484375,265.625,-778.3203125,-0.1392772743091475,1.1496483782886648,0.003665191429188092,-1668,-1663,-895,3872,311,100639
12:18:28.684,16953,377.9296875,300.78125,-826.171875,-0.2138028333693054,1.2131783630612585,0.009773843811168246,-1668,-1663,-895,3872,311,100639
12:18:28.704,16954,387.6953125,323.2421875,-852.5390625,-0.025656340004316647,1.2901473830742083,-0.01710422666954443,-1668,-1663,-895,3872,311,100639
12:18:28.725,16955,463.8671875,284.1796875,-821.2890625,0.2528982086139784,1.3280210278424853,-0.019547687622336492,-1612,-1654,-898,3872,311,100639
12:18:28.735,16956,513.671875,252.9296875,-821.2890625,0.3481931857728688,1.353677367846802,-0.04398229715025711,-1612,-1654,-898,3872,311,100639
12:18:28.755,16957,499.0234375,324.21875,-856.4453125,0.6218608124855797,1.4172073526193958,-0.1038470904936626,-1612,-1654,-898,3872,311,100639
12:18:28.776,16958,499.0234375,288.0859375,-897.4609375,1.1533135697178531,1.5051719469199099,-0.18814649336498873,-1612,-1654,-898,3872,311,100639
12:18:28.796,16959,526.3671875,166.015625,-785.15625,1.5051719469199099,1.5222761735894546,-0.2675589743307307,-1563,-1666,-895,3872,311,100639
12:18:28.816,16960,543.9453125,83.984375,-716.796875,1.5002850250143258,1.5063936773963058,-0.24923301718479027,-1563,-1666,-895,3872,311,100639
12:18:28.827,16961,614.2578125,124.0234375,-766.6015625,1.263269312593496,1.5234979040658503,-0.18448130193580062,-1563,-1666,-895,3872,311,100639
12:18:28.847,16962,631.8359375,213.8671875,-788.0859375,1.106887811614804,1.5784757755036718,-0.2614503219487506,-1563,-1666,-895,3872,311,100639
12:18:28.867,16963,716.796875,196.2890625,-672.8515625,0.994488607786369,1.6542230650402259,-0.3824016391119576,-1563,-1666,-895,3872,311,100639
12:18:28.888,16964,740.234375,109.375,-632.8125,0.7147123286916779,1.7067574755252548,-0.43615778007338296,-1504,-1709,-918,3872,311,100639
12:18:28.908,16965,762.6953125,180.6640625,-615.234375,0.3066543495754037,1.7189747802892155,-0.4654793115068877,-1504,-1709,-918,3872,311,100639
12:18:28.918,16966,736.328125,188.4765625,-623.046875,0.1356120828799594,1.709200936478047,-0.41294490102185843,-1504,-1709,-918,3872,311,100639
12:18:28.938,16967,800.78125,176.7578125,-600.5859375,-0.026878070480712675,1.7385224679115518,-0.33597588100890846,-1504,-1709,-918,3872,311,100639
12:18:28.959,16968,802.734375,160.15625,-651.3671875,-0.1869247628885927,1.7263051631475914,-0.33719761148530447,-1504,-1709,-918,3872,311,100639
12:18:28.979,16969,850.5859375,208.984375,-658.203125,-0.2700024352835228,1.7421876593407397,-0.31887165433936404,-1443,-1732,-963,3872,311,100639
12:18:28.989,16970,858.3984375,188.4765625,-616.2109375,-0.2846632010002752,1.6847663269501267,-0.27733281814189903,-1443,-1732,-963,3872,311,100639
12:18:29.9,16971,895.5078125,186.5234375,-592.7734375,-0.40317105721069013,1.6627751783749978,-0.27611108766550296,-1443,-1732,-963,3872,311,100639
12:18:29.29,16972,932.6171875,173.828125,-625.0,-0.5009094953223726,1.6591099869458097,-0.27611108766550296,-1443,-1732,-963,3872,311,100639
12:18:29.50,16973,980.46875,235.3515625,-653.3203125,-0.4618141200776996,1.6652186393277901,-0.24068090385001806,-1372,-1726,-1019,3872,311,100639
12:18:29.70,16974,1000.9765625,237.3046875,-685.546875,-0.2736676267127109,1.6310101859887012,-0.20158552860534507,-1372,-1726,-1019,3872,311,100639
12:18:29.80,16975,1009.765625,207.03125,-653.3203125,-0.23579398194443396,1.5772540450272756,-0.23701571242082997,-1372,-1726,-1019,3872,311,100639
12:18:29.101,16976,1065.4296875,144.53125,-573.2421875,-0.4679227724596798,1.5198327126366624,-0.2700024352835228,-1372,-1726,-1019,3872,311,100639
12:18:29.121,16977,1101.5625,134.765625,-607.421875,-0.748920782030767,1.4526375364348805,-0.28344147052387914,-1372,-1726,-1019,3872,311,100648
12:18:29.162,16978,1110.3515625,158.203125,-595.703125,-0.912632665867835,1.393994473567871,-0.23701571242082997,-1324,-1703,-1053,3872,311,100648
12:18:29.172,16979,1119.140625,194.3359375,-559.5703125,-0.831998454425697,1.3768902468983266,-0.18325957145940464,-1324,-1703,-1053,3872,311,100648
12:18:29.192,16980,1111.328125,176.7578125,-531.25,-0.6511823439190844,1.3622294811815745,-0.15271630954950383,-1324,-1703,-1053,3872,311,100648
12:18:29.212,16981,1041.9921875,162.109375,-517.578125,-0.5021312257987687,1.347568715464822,-0.16126842288427604,-1324,-1703,-1053,3872,311,100648
12:18:29.233,16982,1001.953125,147.4609375,-477.5390625,-0.4398229715025711,1.3109168011729413,-0.1356120828799594,-1324,-1703,-1053,3872,311,100648
12:18:29.253,16983,965.8203125,162.109375,-396.484375,-0.5656612105713622,1.2498302773531396,-0.07819075048934597,-1292,-1681,-1104,3872,311,100648
12:18:29.263,16984,934.5703125,247.0703125,-350.5859375,-0.6646213791594408,1.19118721448613,0.006108652381980153,-1292,-1681,-1104,3872,311,100648
12:18:29.304,16985,967.7734375,335.9375,-316.40625,-0.676838683923401,1.1643091440054174,0.1551597705022959,-1292,-1681,-1104,3872,311,100648
12:18:29.324,16986,1051.7578125,387.6953125,-329.1015625,-0.5204571829447091,1.1374310735247046,0.1954768762233649,-1292,-1681,-1104,3872,311,100648
12:18:29.344,16987,1061.5234375,370.1171875,-327.1484375,-0.40072759625789806,1.1301006906663282,0.1942551457469689,-1271,-1669,-1155,3872,311,100648
12:18:29.354,16988,1047.8515625,355.46875,-306.640625,-0.44837508483734323,1.1105530030439918,0.18814649336498873,-1271,-1669,-1155,3872,311,100648
12:18:29.375,16989,1058.59375,375.9765625,-308.59375,-0.4618141200776996,1.0543534011297746,0.1954768762233649,-1271,-1669,-1155,3872,311,100648
12:18:29.394,16990,1064.453125,405.2734375,-298.828125,-0.35430183815484895,0.9822713030224087,0.19669860669976097,-1271,-1669,-1155,3872,311,100648
12:18:29.415,16991,1067.3828125,401.3671875,-295.8984375,-0.13316862192716736,0.9297368925373793,0.16859880574265224,-1271,-1669,-1155,3872,311,100648
12:18:29.425,16992,1038.0859375,367.1875,-311.5234375,0.03543018381548489,0.8918632477691024,0.07086036763096978,-1246,-1671,-1187,3872,311,100648
12:18:29.446,16993,1006.8359375,301.7578125,-321.2890625,0.09285151620609834,0.8943067087218944,-0.019547687622336492,-1246,-1671,-1187,3872,311,100648
12:18:29.466,16994,993.1640625,317.3828125,-309.5703125,0.14905111812031577,0.8552113334772216,-0.06841690667817772,-1246,-1671,-1187,3872,311,100648
12:18:29.487,16995,974.609375,308.59375,-291.015625,0.3029891581462157,0.7757988525114795,-0.05986479334340551,-1246,-1671,-1187,3872,311,100648
12:18:29.507,16996,980.46875,283.203125,-263.671875,0.4801400772236401,0.6939429105929455,-0.03665191429188092,-1246,-1671,-1187,3872,311,100648
12:18:29.517,16997,1019.53125,266.6015625,-197.265625,0.6059783162924314,0.5705481324769464,-0.007330382858376184,-1232,-1673,-1229,3872,311,100648
12:18:29.538,16998,1032.2265625,253.90625,-144.53125,0.6084217772452234,0.4605923896013036,0.026878070480712675,-1232,-1673,-1229,3872,311,100648
12:18:29.578,16999,1044.921875,261.71875,-111.328125,0.6255260039147678,0.40927970959267035,0.05742133239061345,-1232,-1673,-1229,3872,311,100648
12:18:29.589,17000,1050.78125,230.46875,-89.84375,0.6743952229706089,0.3640756819660172,0.04642575810304917,-1232,-1673,-1229,3872,311,100648
12:18:29.609,17001,1064.453125,213.8671875,-61.5234375,0.6621779182066487,0.32253684576855207,0.003665191429188092,-1232,-1673,-1229,3872,311,100648
12:18:29.630,17002,1031.25,191.40625,-31.25,0.5241223743738972,0.238237442897226,-0.021991148575128554,-1233,-1684,-1271,3872,311,100648
12:18:29.650,17003,999.0234375,152.34375,-22.4609375,0.39828413530510604,0.19669860669976097,-0.0635299847725936,-1233,-1684,-1271,3872,311,100648
12:18:29.671,17004,991.2109375,167.96875,-44.921875,0.2932153143350474,0.17226399717184035,-0.10018189906447451,-1233,-1684,-1271,3872,311,100648
12:18:29.681,17005,981.4453125,148.4375,-101.5625,0.2748893571891069,0.1478293876439197,-0.1270599695451872,-1233,-1684,-1271,3872,311,100648
12:18:29.722,17006,1006.8359375,96.6796875,-151.3671875,0.1038470904936626,0.11239920382843484,-0.1392772743091475,-1229,-1684,-1275,3872,311,100648
12:18:29.742,17007,1016.6015625,98.6328125,-180.6640625,-0.06597344572538566,0.0867428638241182,-0.1356120828799594,-1229,-1684,-1275,3872,311,100648
12:18:29.753,17008,1039.0625,90.8203125,-184.5703125,-0.0989601685880785,0.0158824961931484,-0.09651670763528641,-1229,-1684,-1275,3872,311,100648
12:18:29.773,17009,1034.1796875,170.8984375,-125.0,-0.19914206765255302,-0.03543018381548489,-0.0635299847725936,-1229,-1684,-1275,3872,311,100648
12:18:29.793,17010,1006.8359375,209.9609375,-83.0078125,-0.1356120828799594,-0.0952949771588904,-0.0635299847725936,-1229,-1684,-1275,3872,311,100648
12:18:29.813,17011,992.1875,221.6796875,-41.9921875,-0.08063421144213802,-0.08063421144213802,-0.07696902001294993,-1229,-1680,-1278,3872,311,100648
12:18:29.834,17012,982.421875,275.390625,-20.5078125,-0.0012217304763960308,-0.06597344572538566,-0.07696902001294993,-1229,-1680,-1278,3872,311,100648
12:18:29.844,17013,976.5625,291.9921875,5.859375,0.1905899543177808,-0.07086036763096978,-0.0476474885794452,-1229,-1680,-1278,3872,311,100648
12:18:29.864,17014,961.9140625,286.1328125,22.4609375,0.4813618077000361,-0.07696902001294993,0.01832595714594046,-1229,-1680,-1278,3872,311,100648
12:18:29.884,17015,963.8671875,261.71875,29.296875,0.5314527572322734,-0.08185594191853407,0.052534410485029326,-1229,-1680,-1278,3872,311,100648
12:18:29.905,17016,964.84375,242.1875,17.578125,0.4838052686528282,-0.0952949771588904,0.07452555906015788,-1227,-1681,-1286,3872,311,100648
12:18:29.925,17017,966.796875,240.234375,22.4609375,0.33964107243809655,-0.12583823906879116,0.07696902001294993,-1227,-1681,-1286,3872,311,100648
12:18:29.935,17018,977.5390625,208.0078125,28.3203125,0.06230825429619757,-0.15760323145508798,0.08185594191853407,-1227,-1681,-1286,3872,311,100648
12:18:29.956,17019,992.1875,210.9375,39.0625,-0.16859880574265224,-0.17592918860102844,0.06963863715457375,-1227,-1681,-1286,3872,311,100648
12:18:29.996,17020,999.0234375,210.9375,29.296875,-0.3127630019573839,-0.17226399717184035,0.058643062867009474,-1224,-1682,-1300,3872,311,100648
12:18:30.17,17021,982.421875,209.9609375,14.6484375,-0.3775147172063735,-0.1661553447898602,0.026878070480712675,-1224,-1682,-1300,3872,311,100648
12:18:30.27,17022,980.46875,229.4921875,-1.953125,-0.37629298672997746,-0.11606439525762292,0.03543018381548489,-1224,-1682,-1300,3872,311,100648
12:18:30.48,17023,986.328125,233.3984375,-13.671875,-0.3384193419617005,-0.10018189906447451,0.01710422666954443,-1224,-1682,-1300,3872,311,100648
12:18:30.68,17024,988.28125,224.609375,-19.53125,-0.2932153143350474,-0.0952949771588904,0.012217304763960306,-1224,-1682,-1300,3872,311,100648
12:18:30.89,17025,998.046875,233.3984375,-26.3671875,-0.3078760800517997,-0.09407324668249437,-0.020769418098732523,-1222,-1689,-1268,3872,311,100648
12:18:30.99,17026,1002.9296875,242.1875,-29.296875,-0.24923301718479027,-0.1038470904936626,-0.023212879051524585,-1222,-1689,-1268,3872,311,100648
12:18:30.140,17027,1006.8359375,240.234375,-35.15625,-0.16249015336067207,-0.09407324668249437,-0.03054326190990077,-1222,-1689,-1268,3878,311,100651
12:18:30.161,17028,1004.8828125,227.5390625,-37.109375,-0.09040805525330627,-0.09040805525330627,-0.03543018381548489,-1222,-1689,-1268,3878,311,100651
12:18:30.212,17029,1009.765625,224.609375,-45.8984375,-0.07819075048934597,-0.07208209810736582,-0.02809980095710871,-1222,-1689,-1268,3878,311,100651
12:18:30.233,17030,1005.859375,201.171875,-40.0390625,-0.08429940287132612,-0.0867428638241182,-0.04520402762665313,-1223,-1687,-1271,3878,311,100651
12:18:30.253,17031,998.046875,194.3359375,-37.109375,-0.16493361431346415,-0.08918632477691024,-0.052534410485029326,-1223,-1687,-1271,3878,311,100651
12:18:30.263,17032,983.3984375,205.078125,-38.0859375,-0.19914206765255302,-0.10995574287564278,-0.04398229715025711,-1223,-1687,-1271,3878,311,100651
12:18:30.284,17033,984.375,227.5390625,-43.9453125,-0.1893682238413848,-0.10873401239924674,-0.04031710572106901,-1223,-1687,-1271,3878,311,100651
12:18:30.304,17034,979.4921875,200.1953125,-41.015625,-0.14172073526193957,-0.10262536001726659,-0.06230825429619757,-1227,-1684,-1280,3878,311,100651
12:18:30.324,17035,980.46875,201.171875,-49.8046875,-0.15882496193148402,-0.1038470904936626,-0.051312680008633295,-1227,-1684,-1280,3878,311,100651
12:18:30.344,17036,988.28125,211.9140625,-47.8515625,-0.15638150097869194,-0.12583823906879116,-0.007330382858376184,-1227,-1684,-1280,3878,311,100651
12:18:30.355,17037,1000.0,213.8671875,-31.25,-0.12828170002158323,-0.14416419621473164,0.024434609527920613,-1227,-1684,-1280,3878,311,100651
12:18:30.375,17038,1000.9765625,208.984375,-21.484375,-0.15149457907310784,-0.1734857276482364,0.03054326190990077,-1227,-1684,-1280,3878,311,100651
12:18:30.395,17039,995.1171875,208.0078125,-32.2265625,-0.20525072003453318,-0.15393804002589986,0.008552113334772215,-1218,-1689,-1275,3878,311,100651
12:18:30.416,17040,980.46875,215.8203125,-36.1328125,-0.2223549467040776,-0.1392772743091475,0.0024434609527920616,-1218,-1689,-1275,3878,311,100651
12:18:30.436,17041,983.3984375,226.5625,-28.3203125,-0.18081611050661253,-0.14172073526193957,0.023212879051524585,-1218,-1689,-1275,3878,311,100651
12:18:30.446,17042,995.1171875,234.375,-22.4609375,-0.12950343049797927,-0.1392772743091475,0.023212879051524585,-1218,-1689,-1275,3878,311,100651
12:18:30.467,17043,990.234375,217.7734375,-30.2734375,-0.10018189906447451,-0.14049900478554353,0.006108652381980153,-1218,-1689,-1275,3878,311,100651
12:18:30.487,17044,984.375,205.078125,-42.96875,-0.1233947781159991,-0.14538592669112765,0.004886921905584123,-1225,-1685,-1266,3878,311,100651
12:18:30.508,17045,991.2109375,221.6796875,-35.15625,-0.18814649336498873,-0.15271630954950383,0.02809980095710871,-1225,-1685,-1266,3878,311,100651
12:18:30.518,17046,998.046875,227.5390625,-28.3203125,-0.19181168479417682,-0.15271630954950383,0.05619960191421742,-1225,-1685,-1266,3878,311,100651
12:18:30.538,17047,998.046875,231.4453125,-30.2734375,-0.15271630954950383,-0.1551597705022959,0.03054326190990077,-1225,-1685,-1266,3878,311,100651
12:18:30.559,17048,998.046875,225.5859375,-21.484375,-0.11972958668681102,-0.1356120828799594,-0.006108652381980153,-1225,-1690,-1263,3878,311,100651
12:18:30.579,17049,997.0703125,221.6796875,-27.34375,-0.09040805525330627,-0.11728612573401895,-0.014660765716752368,-1225,-1690,-1263,3878,311,100651
12:18:30.599,17050,996.09375,208.984375,-25.390625,-0.10629055144645469,-0.10262536001726659,-0.020769418098732523,-1225,-1690,-1263,3878,311,100651
12:18:30.610,17051,992.1875,201.171875,-32.2265625,-0.12461650859239513,-0.09407324668249437,-0.025656340004316647,-1225,-1690,-1263,3878,311,100651
12:18:30.630,17052,991.2109375,204.1015625,-27.34375,-0.13683381335635544,-0.09040805525330627,-0.03787364476827696,-1225,-1690,-1263,3878,311,100651
12:18:30.650,17053,992.1875,202.1484375,-25.390625,-0.1478293876439197,-0.0830776723949301,-0.03054326190990077,-1229,-1688,-1288,3878,311,100651
12:18:30.671,17054,992.1875,212.890625,-28.3203125,-0.1356120828799594,-0.09285151620609834,-0.020769418098732523,-1229,-1688,-1288,3878,311,100651
12:18:30.701,17055,987.3046875,215.8203125,-25.390625,-0.10140362954087055,-0.07574728953655392,-0.01832595714594046,-1229,-1688,-1288,3878,311,100651
12:18:30.722,17056,985.3515625,200.1953125,-34.1796875,-0.08918632477691024,-0.07208209810736582,-0.02809980095710871,-1229,-1688,-1288,3878,311,100651
12:18:30.742,17057,992.1875,208.0078125,-39.0625,-0.09773843811168245,-0.06230825429619757,-0.04642575810304917,-1229,-1688,-1288,3878,311,100651
12:18:30.762,17058,988.28125,211.9140625,-34.1796875,-0.07086036763096978,-0.07452555906015788,-0.024434609527920613,-1232,-1686,-1258,3878,311,100651
12:18:30.773,17059,992.1875,212.890625,-32.2265625,-0.08429940287132612,-0.06597344572538566,-0.03787364476827696,-1232,-1686,-1258,3878,311,100651
12:18:30.793,17060,993.1640625,218.75,-38.0859375,-0.09407324668249437,-0.05497787143782139,-0.05742133239061345,-1232,-1686,-1258,3878,311,100651
12:18:30.813,17061,989.2578125,223.6328125,-42.96875,-0.07819075048934597,-0.052534410485029326,-0.06108652381980154,-1232,-1686,-1258,3878,311,100651
12:18:30.833,17062,993.1640625,210.9375,-41.015625,-0.07941248096574201,-0.05742133239061345,-0.05497787143782139,-1224,-1690,-1258,3878,311,100651
12:18:30.854,17063,995.1171875,222.65625,-33.203125,-0.08429940287132612,-0.048869219055841226,-0.04276056667386108,-1224,-1690,-1258,3878,311,100651
12:18:30.864,17064,997.0703125,220.703125,-35.15625,-0.05986479334340551,-0.05742133239061345,-0.03543018381548489,-1224,-1690,-1258,3878,311,100651
12:18:30.884,17065,994.140625,216.796875,-33.203125,-0.048869219055841226,-0.05009094953223726,-0.04153883619746505,-1224,-1690,-1258,3878,311,100651
12:18:30.904,17066,1005.859375,207.03125,-31.25,-0.05497787143782139,-0.04153883619746505,-0.06597344572538566,-1224,-1690,-1258,3878,311,100651
12:18:30.925,17067,1013.671875,193.359375,-21.484375,-0.09285151620609834,-0.04153883619746505,-0.06108652381980154,-1229,-1683,-1268,3878,311,100651
12:18:30.945,17068,1006.8359375,190.4296875,-12.6953125,-0.12583823906879116,-0.04642575810304917,-0.03420845333908886,-1229,-1683,-1268,3878,311,100651
12:18:30.975,17069,992.1875,188.4765625,-15.625,-0.11728612573401895,-0.03665191429188092,-0.010995574287564277,-1229,-1683,-1268,3878,311,100651
12:18:30.996,17070,973.6328125,189.453125,-23.4375,-0.1233947781159991,-0.003665191429188092,-0.0012217304763960308,-1229,-1683,-1268,3878,311,100651
12:18:31.17,17071,971.6796875,189.453125,-28.3203125,-0.12461650859239513,-0.0024434609527920616,-0.024434609527920613,-1229,-1683,-1268,3878,311,100651
12:18:31.27,17072,970.703125,196.2890625,-41.015625,-0.09162978572970232,0.007330382858376184,-0.03054326190990077,-1229,-1688,-1269,3878,311,100651
12:18:31.47,17073,974.609375,178.7109375,-48.828125,-0.05742133239061345,0.01710422666954443,-0.007330382858376184,-1229,-1688,-1269,3878,311,100651
12:18:31.68,17074,979.4921875,197.265625,-55.6640625,-0.07696902001294993,-0.0024434609527920616,0.014660765716752368,-1229,-1688,-1269,3878,311,100651
12:18:31.88,17075,981.4453125,207.03125,-60.546875,-0.06475171524898964,-0.0317649923862968,0.021991148575128554,-1229,-1688,-1269,3878,311,100651
12:18:31.118,17076,992.1875,225.5859375,-61.5234375,-0.03543018381548489,-0.048869219055841226,0.020769418098732523,-1229,-1688,-1269,3878,311,100651
12:18:31.139,17077,1000.9765625,205.078125,-60.546875,-0.04031710572106901,-0.06963863715457375,-0.01710422666954443,-1227,-1692,-1277,3896,311,100644
12:18:31.159,17078,1017.578125,200.1953125,-55.6640625,-0.10140362954087055,-0.07574728953655392,-0.0476474885794452,-1227,-1692,-1277,3896,311,100644
12:18:31.180,17079,1018.5546875,200.1953125,-57.6171875,-0.15393804002589986,-0.08552113334772216,-0.01832595714594046,-1227,-1692,-1277,3896,311,100644
12:18:31.200,17080,1004.8828125,211.9140625,-49.8046875,-0.16371188383706814,-0.0952949771588904,-0.009773843811168246,-1227,-1692,-1277,3896,311,100644
12:18:31.211,17081,992.1875,226.5625,-52.734375,-0.12583823906879116,-0.09651670763528641,-0.020769418098732523,-1228,-1688,-1265,3896,311,100644
12:18:31.231,17082,979.4921875,214.84375,-51.7578125,-0.06230825429619757,-0.10018189906447451,-0.03543018381548489,-1228,-1688,-1265,3896,311,100644
12:18:31.252,17083,983.3984375,210.9375,-55.6640625,-0.07696902001294993,-0.10140362954087055,-0.03665191429188092,-1228,-1688,-1265,3896,311,100644
12:18:31.272,17084,986.328125,207.03125,-41.015625,-0.09285151620609834,-0.12461650859239513,0.0024434609527920616,-1228,-1688,-1265,3896,311,100644
12:18:31.282,17085,992.1875,208.984375,-37.109375,-0.12828170002158323,-0.13194689145077132,0.0024434609527920616,-1228,-1688,-1265,3896,311,100644
12:18:31.303,17086,989.2578125,216.796875,-26.3671875,-0.14172073526193957,-0.1343903524035634,-0.003665191429188092,-1226,-1689,-1263,3896,311,100644
12:18:31.323,17087,984.375,227.5390625,-26.3671875,-0.11606439525762292,-0.11728612573401895,-0.03543018381548489,-1226,-1689,-1263,3896,311,100644
12:18:31.344,17088,987.3046875,204.1015625,-29.296875,-0.07208209810736582,-0.09162978572970232,-0.05009094953223726,-1226,-1689,-1263,3896,311,100644
12:18:31.364,17089,993.1640625,205.078125,-21.484375,-0.06841690667817772,-0.0830776723949301,-0.03787364476827696,-1226,-1689,-1263,3896,311,100644
12:18:31.395,17090,992.1875,207.03125,-29.296875,-0.0635299847725936,-0.08796459430051422,-0.003665191429188092,-1226,-1689,-1263,3896,311,100644
12:18:31.415,17091,986.328125,203.125,-19.53125,-0.0671951762017817,-0.09040805525330627,-0.012217304763960306,-1233,-1693,-1274,3896,311,100644
12:18:31.436,17092,990.234375,198.2421875,-17.578125,-0.1148426647812269,-0.08063421144213802,-0.0476474885794452,-1233,-1693,-1274,3896,311,100644
12:18:31.456,17093,986.328125,200.1953125,-22.4609375,-0.13805554383275148,-0.08429940287132612,-0.02809980095710871,-1233,-1693,-1274,3896,311,100644
12:18:31.466,17094,991.2109375,208.0078125,-19.53125,-0.1270599695451872,-0.05742133239061345,-0.023212879051524585,-1233,-1693,-1274,3896,311,100644
12:18:31.487,17095,990.234375,204.1015625,-16.6015625,-0.0635299847725936,-0.04276056667386108,-0.012217304763960306,-1224,-1691,-1269,3896,311,100644
12:18:31.507,17096,988.28125,196.2890625,-19.53125,-0.04520402762665313,-0.05375614096142535,-0.012217304763960306,-1224,-1691,-1269,3896,311,100644
12:18:31.538,17097,988.28125,194.3359375,-32.2265625,-0.06963863715457375,-0.03420845333908886,-0.029321531433504737,-1224,-1691,-1269,3896,311,100644
12:18:31.558,17098,993.1640625,196.2890625,-35.15625,-0.10873401239924674,-0.02809980095710871,-0.0158824961931484,-1224,-1691,-1269,3896,311,100644
12:18:31.579,17099,997.0703125,205.078125,-38.0859375,-0.0989601685880785,-0.019547687622336492,0.0,-1224,-1691,-1269,3896,311,100644
12:18:31.599,17100,997.0703125,209.9609375,-41.015625,-0.06963863715457375,-0.029321531433504737,0.003665191429188092,-1226,-1694,-1257,3896,311,100644
12:18:31.619,17101,998.046875,206.0546875,-43.9453125,-0.06230825429619757,-0.03787364476827696,-0.0158824961931484,-1226,-1694,-1257,3896,311,100644
12:18:31.629,17102,998.046875,203.125,-47.8515625,-0.09407324668249437,-0.03298672286269283,-0.051312680008633295,-1226,-1694,-1257,3896,311,100644
12:18:31.650,17103,995.1171875,205.078125,-53.7109375,-0.11362093430483088,-0.039095375244672985,-0.07086036763096978,-1226,-1694,-1257,3896,311,100644
12:18:31.670,17104,988.28125,206.0546875,-52.734375,-0.11239920382843484,-0.03787364476827696,-0.0635299847725936,-1226,-1694,-1257,3896,311,100644
12:18:31.690,17105,992.1875,210.9375,-44.921875,-0.10873401239924674,-0.04031710572106901,-0.05375614096142535,-1230,-1694,-1268,3896,311,100644
12:18:31.711,17106,994.140625,216.796875,-42.96875,-0.06108652381980154,-0.06230825429619757,-0.06108652381980154,-1230,-1694,-1268,3896,311,100644
12:18:31.722,17107,990.234375,227.5390625,-42.96875,-0.019547687622336492,-0.05742133239061345,-0.08918632477691024,-1230,-1694,-1268,3896,311,100644
12:18:31.742,17108,990.234375,244.140625,-41.015625,0.051312680008633295,-0.05986479334340551,-0.09651670763528641,-1230,-1694,-1268,3896,311,100644
12:18:31.762,17109,1003.90625,257.8125,-34.1796875,0.20891591146372127,-0.03543018381548489,-0.11850785621041499,-1228,-1693,-1259,3896,311,100644
12:18:31.783,17110,1002.9296875,249.0234375,-28.3203125,0.5265658353266892,-0.04153883619746505,-0.13194689145077132,-1228,-1693,-1259,3896,311,100644
12:18:31.813,17111,990.234375,152.34375,-62.5,0.5668829410477583,-0.052534410485029326,-0.08063421144213802,-1228,-1693,-1259,3896,311,100644
12:18:31.833,17112,990.234375,107.421875,-62.5,0.15760323145508798,-0.048869219055841226,-0.04398229715025711,-1228,-1693,-1259,3896,311,100644
12:18:31.854,17113,984.375,150.390625,-38.0859375,-0.3017674276698196,-0.07696902001294993,-0.01832595714594046,-1228,-1693,-1259,3896,311,100644
12:18:31.874,17114,984.375,211.9140625,-37.109375,-0.519235452468313,-0.09285151620609834,-0.048869219055841226,-1226,-1690,-1269,3896,311,100644
12:18:31.885,17115,990.234375,233.3984375,-36.1328125,-0.35674529910764097,-0.07941248096574201,-0.06108652381980154,-1226,-1690,-1269,3896,311,100644
12:18:31.905,17116,994.140625,225.5859375,-33.203125,-0.15149457907310784,-0.05375614096142535,-0.05619960191421742,-1226,-1690,-1269,3896,311,100644
12:18:31.925,17117,996.09375,195.3125,-35.15625,-0.008552113334772215,-0.048869219055841226,-0.01710422666954443,-1226,-1690,-1269,3896,311,100644
12:18:31.956,17118,993.1640625,171.875,-31.25,0.019547687622336492,-0.051312680008633295,0.0024434609527920616,-1226,-1690,-1269,3896,311,100644
12:18:31.977,17119,993.1640625,176.7578125,-30.2734375,-0.10629055144645469,-0.0671951762017817,-0.004886921905584123,-1223,-1692,-1280,3896,311,100644
12:18:31.997,17120,987.3046875,201.171875,-38.0859375,-0.13805554383275148,-0.08429940287132612,0.013439035240356337,-1223,-1692,-1280,3896,311,100644
12:18:32.18,17121,988.28125,214.84375,-38.0859375,-0.0830776723949301,-0.05986479334340551,-0.004886921905584123,-1223,-1692,-1280,3896,311,100644
12:18:32.38,17122,986.328125,210.9375,-29.296875,0.014660765716752368,-0.06108652381980154,-0.007330382858376184,-1223,-1692,-1280,3896,311,100644
12:18:32.49,17123,989.2578125,215.8203125,-34.1796875,0.15393804002589986,-0.05375614096142535,-0.006108652381980153,-1226,-1694,-1276,3896,311,100644
12:18:32.69,17124,991.2109375,206.0546875,-37.109375,0.25900686099595854,-0.05009094953223726,-0.004886921905584123,-1226,-1694,-1276,3896,311,100644
12:18:32.110,17125,990.234375,152.34375,-44.921875,0.09407324668249437,-0.052534410485029326,-0.007330382858376184,-1226,-1694,-1276,3896,311,100644
12:18:32.120,17126,994.140625,143.5546875,-48.828125,-0.2516764781375823,-0.04276056667386108,-0.0158824961931484,-1226,-1694,-1276,3896,311,100644
12:18:32.140,17127,997.0703125,209.9609375,-35.15625,-0.5241223743738972,-0.0671951762017817,-0.03420845333908886,-1226,-1694,-1276,3872,311,100652
12:18:32.161,17128,996.09375,237.3046875,-32.2265625,-0.4434881629317592,-0.05619960191421742,-0.0317649923862968,-1228,-1697,-1268,3872,311,100652
12:18:32.182,17129,990.234375,232.421875,-34.1796875,-0.3262020371977402,-0.06108652381980154,-0.048869219055841226,-1228,-1697,-1268,3872,311,100652
12:18:32.202,17130,996.09375,213.8671875,-37.109375,-0.238237442897226,-0.0671951762017817,-0.04153883619746505,-1228,-1697,-1268,3872,311,100652
12:18:32.212,17131,992.1875,200.1953125,-31.25,-0.21258110289290938,-0.06108652381980154,-0.04520402762665313,-1228,-1697,-1268,3872,311,100652
12:18:32.233,17132,989.2578125,193.359375,-35.15625,-0.28344147052387914,-0.04398229715025711,-0.06108652381980154,-1228,-1697,-1268,3872,311,100652
12:18:32.253,17133,986.328125,181.640625,-36.1328125,-0.3457497248200767,-0.052534410485029326,-0.06108652381980154,-1218,-1691,-1261,3872,311,100652
12:18:32.274,17134,993.1640625,203.125,-39.0625,-0.4202752838802346,-0.048869219055841226,-0.06230825429619757,-1218,-1691,-1261,3872,311,100652
12:18:32.284,17135,996.09375,208.984375,-47.8515625,-0.42394047530942264,-0.06230825429619757,-0.04031710572106901,-1218,-1691,-1261,3872,311,100652
12:18:32.304,17136,994.140625,190.4296875,-46.875,-0.4557054676957195,-0.05497787143782139,-0.048869219055841226,-1218,-1691,-1261,3872,311,100652
12:18:32.324,17137,1001.953125,140.625,-26.3671875,-0.6462954220135002,-0.06963863715457375,-0.05497787143782139,-1231,-1688,-1273,3872,311,100652
12:18:32.344,17138,993.1640625,172.8515625,-38.0859375,-0.8356636458548851,-0.0952949771588904,-0.07452555906015788,-1231,-1688,-1273,3872,311,100652
12:18:32.375,17139,991.2109375,203.125,-30.2734375,-0.9602801544472802,-0.0989601685880785,-0.07941248096574201,-1231,-1688,-1273,3872,311,100652
12:18:32.396,17140,990.234375,218.75,-7.8125,-0.9737191896876365,-0.07330382858376185,-0.09040805525330627,-1231,-1688,-1273,3872,311,100652
12:18:32.416,17141,991.2109375,243.1640625,-10.7421875,-0.8600982553828056,-0.0830776723949301,-0.09407324668249437,-1231,-1688,-1273,3872,311,100652
12:18:32.437,17142,990.234375,230.46875,-9.765625,-0.6731734924942129,-0.0671951762017817,-0.09162978572970232,-1232,-1688,-1261,3872,311,100652
12:18:32.457,17143,991.2109375,231.4453125,-1.953125,-0.4825835381764321,-0.0635299847725936,-0.0867428638241182,-1232,-1688,-1261,3872,311,100652
12:18:32.468,17144,994.140625,230.46875,-11.71875,-0.3481931857728688,-0.07574728953655392,-0.06841690667817772,-1232,-1688,-1261,3872,311,100652
12:18:32.488,17145,990.234375,211.9140625,-9.765625,-0.2150245638457014,-0.07819075048934597,-0.06475171524898964,-1232,-1688,-1261,3872,311,100652
12:18:32.529,17146,986.328125,207.03125,-11.71875,-0.1478293876439197,-0.07696902001294993,-0.06475171524898964,-1232,-1688,-1261,3872,311,100652
12:18:32.540,17147,996.09375,204.1015625,-11.71875,-0.16249015336067207,-0.08918632477691024,-0.02809980095710871,-1222,-1679,-1271,3872,311,100652
12:18:32.560,17148,996.09375,225.5859375,-6.8359375,-0.16859880574265224,-0.0952949771588904,-0.03787364476827696,-1222,-1679,-1271,3872,311,100652
12:18:32.581,17149,995.1171875,225.5859375,-16.6015625,-0.13805554383275148,-0.0830776723949301,-0.05375614096142535,-1222,-1679,-1271,3872,311,100652
12:18:32.602,17150,993.1640625,227.5390625,-25.390625,-0.1111774733520388,-0.0867428638241182,-0.04642575810304917,-1222,-1679,-1271,3872,311,100652
12:18:32.612,17151,999.0234375,222.65625,-27.34375,-0.08796459430051422,-0.10140362954087055,-0.01710422666954443,-1222,-1679,-1271,3872,311,100652
12:18:32.632,17152,1000.0,229.4921875,-22.4609375,-0.05742133239061345,-0.07452555906015788,0.0,-1224,-1677,-1259,3872,311,100652
12:18:32.653,17153,994.140625,235.3515625,-21.484375,-0.009773843811168246,-0.07330382858376185,-0.0012217304763960308,-1224,-1677,-1259,3872,311,100652
12:18:32.673,17154,989.2578125,230.46875,-22.4609375,0.0158824961931484,-0.07086036763096978,-0.013439035240356337,-1224,-1677,-1259,3872,311,100652
12:18:32.694,17155,988.28125,231.4453125,-25.390625,0.04276056667386108,-0.0867428638241182,-0.029321531433504737,-1224,-1677,-1259,3872,311,100652
12:18:32.704,17156,990.234375,226.5625,-28.3203125,0.05375614096142535,-0.0830776723949301,-0.04153883619746505,-1229,-1682,-1254,3872,311,100652
12:18:32.725,17157,984.375,231.4453125,-41.9921875,0.04153883619746505,-0.09285151620609834,-0.029321531433504737,-1229,-1682,-1254,3872,311,100652
12:18:32.745,17158,987.3046875,234.375,-43.9453125,0.04153883619746505,-0.0989601685880785,-0.003665191429188092,-1229,-1682,-1254,3872,311,100652
12:18:32.765,17159,1003.90625,246.09375,-34.1796875,0.06597344572538566,-0.09285151620609834,-0.012217304763960306,-1229,-1682,-1254,3872,311,100652
12:18:32.796,17160,1006.8359375,230.46875,-25.390625,0.07208209810736582,-0.11362093430483088,-0.03543018381548489,-1229,-1682,-1254,3872,311,100652
12:18:32.816,17161,1012.6953125,229.4921875,-27.34375,0.03543018381548489,-0.12095131716320705,-0.07941248096574201,-1228,-1682,-1253,3872,311,100652
12:18:32.836,17162,1007.8125,219.7265625,-36.1328125,0.0158824961931484,-0.11728612573401895,-0.0952949771588904,-1228,-1682,-1253,3872,311,100652
12:18:32.857,17163,1004.8828125,223.6328125,-38.0859375,-0.03420845333908886,-0.11728612573401895,-0.12583823906879116,-1228,-1682,-1253,3872,311,100652
12:18:32.867,17164,987.3046875,217.7734375,-35.15625,-0.0317649923862968,-0.12217304763960309,-0.1343903524035634,-1228,-1682,-1253,3872,311,100652
12:18:32.887,17165,984.375,210.9375,-28.3203125,-0.03298672286269283,-0.12217304763960309,-0.16493361431346415,-1228,-1682,-1253,3872,311,100652
12:18:32.907,17166,979.4921875,194.3359375,-29.296875,-0.0671951762017817,-0.14049900478554353,-0.1820378409830086,-1225,-1681,-1250,3872,311,100652
12:18:32.948,17167,984.375,188.4765625,-32.2265625,-0.13683381335635544,-0.16737707526625623,-0.15271630954950383,-1225,-1681,-1250,3872,311,100652
12:18:32.958,17168,984.375,189.453125,-32.2265625,-0.15271630954950383,-0.1869247628885927,-0.1343903524035634,-1225,-1681,-1250,3872,311,100652
12:18:32.978,17169,996.09375,197.265625,-20.5078125,-0.197920337176157,-0.2113593724165133,-0.1270599695451872,-1225,-1681,-1250,3872,311,100652
12:18:32.998,17170,995.1171875,198.2421875,-18.5546875,-0.21258110289290938,-0.20891591146372127,-0.1270599695451872,-1229,-1679,-1257,3872,311,100652
12:18:33.19,17171,1000.9765625,194.3359375,-17.578125,-0.2700024352835228,-0.20036379812894903,-0.14416419621473164,-1229,-1679,-1257,3872,311,100652
12:18:33.39,17172,1005.859375,187.5,-19.53125,-0.3481931857728688,-0.197920337176157,-0.14905111812031577,-1229,-1679,-1257,3872,311,100652
12:18:33.49,17173,998.046875,188.4765625,-13.671875,-0.43615778007338296,-0.1905899543177808,-0.14416419621473164,-1229,-1679,-1257,3872,311,100652
12:18:33.70,17174,986.328125,195.3125,-22.4609375,-0.4434881629317592,-0.18325957145940464,-0.12217304763960309,-1229,-1679,-1257,3872,311,100652
12:18:33.90,17175,965.8203125,197.265625,-18.5546875,-0.4166100924510465,-0.18081611050661253,-0.1148426647812269,-1226,-1674,-1244,3872,311,100652
12:18:33.111,17176,975.5859375,191.40625,-22.4609375,-0.4288273972150068,-0.1734857276482364,-0.1075122819228507,-1226,-1674,-1244,3872,311,100652
12:18:33.121,17177,975.5859375,196.2890625,-22.4609375,-0.4447098934081552,-0.1820378409830086,-0.10506882097005865,-1226,-1674,-1244,3878,311,100645
12:18:33.141,17178,968.75,194.3359375,-29.296875,-0.475253155318056,-0.17959438003021652,-0.09407324668249437,-1226,-1674,-1244,3878,311,100645
12:18:33.162,17179,963.8671875,205.078125,-26.3671875,-0.5057964172279568,-0.18570303241219668,-0.05619960191421742,-1226,-1674,-1244,3878,311,100645
12:18:33.183,17180,973.6328125,209.9609375,-28.3203125,-0.5400048705670456,-0.17837264955382048,-0.04520402762665313,-1228,-1664,-1246,3878,311,100645
12:18:33.213,17181,982.421875,220.703125,-24.4140625,-0.5754350543825305,-0.18448130193580062,-0.02809980095710871,-1228,-1664,-1246,3878,311,100645
12:18:33.234,17182,981.4453125,231.4453125,-18.5546875,-0.5913175505756788,-0.16249015336067207,-0.04031710572106901,-1228,-1664,-1246,3878,311,100645
12:18:33.254,17183,985.3515625,239.2578125,-27.34375,-0.5827654372409066,-0.14905111812031577,-0.021991148575128554,-1228,-1664,-1246,3878,311,100645
12:18:33.275,17184,981.4453125,239.2578125,-20.5078125,-0.5729915934297385,-0.13683381335635544,-0.0024434609527920616,-1229,-1661,-1243,3878,311,100645
12:18:33.285,17185,980.46875,239.2578125,-23.4375,-0.5424483315198376,-0.11606439525762292,0.025656340004316647,-1229,-1661,-1243,3878,311,100645
12:18:33.305,17186,982.421875,250.0,-35.15625,-0.519235452468313,-0.10629055144645469,0.05375614096142535,-1229,-1661,-1243,3878,311,100645
12:18:33.325,17187,983.3984375,254.8828125,-33.203125,-0.4569271981721155,-0.0952949771588904,0.11606439525762292,-1229,-1661,-1243,3878,311,100645
12:18:33.366,17188,979.4921875,276.3671875,-35.15625,-0.33475415053251245,-0.09773843811168245,0.15760323145508798,-1229,-1661,-1243,3878,311,100645
12:18:33.376,17189,978.515625,291.015625,-50.78125,-0.278554548618295,-0.0989601685880785,0.1905899543177808,-1228,-1661,-1241,3878,311,100645
12:18:33.397,17190,981.4453125,300.78125,-51.7578125,-0.19669860669976097,-0.09285151620609834,0.2076941809873252,-1228,-1661,-1241,3878,311,100645
12:18:33.417,17191,985.3515625,288.0859375,-55.6640625,-0.18814649336498873,-0.09651670763528641,0.16249015336067207,-1228,-1661,-1241,3878,311,100645
12:18:33.437,17192,986.328125,294.921875,-55.6640625,-0.24923301718479027,-0.1075122819228507,0.11239920382843484,-1228,-1661,-1241,3878,311,100645
12:18:33.457,17193,979.4921875,298.828125,-55.6640625,-0.2956587752878394,-0.11972958668681102,0.06475171524898964,-1228,-1661,-1241,3878,311,100645
12:18:33.468,17194,975.5859375,299.8046875,-52.734375,-0.32131511529215606,-0.10629055144645469,0.020769418098732523,-1235,-1662,-1245,3878,311,100645
12:18:33.488,17195,971.6796875,290.0390625,-51.7578125,-0.33475415053251245,-0.10873401239924674,-0.03054326190990077,-1235,-1662,-1245,3878,311,100645
12:18:33.508,17196,989.2578125,290.0390625,-47.8515625,-0.3090978105281958,-0.10262536001726659,-0.07574728953655392,-1235,-1662,-1245,3878,311,100645
12:18:33.529,17197,1000.9765625,269.53125,-41.9921875,-0.31887165433936404,-0.12095131716320705,-0.11728612573401895,-1235,-1662,-1245,3878,311,100645
12:18:33.539,17198,999.0234375,270.5078125,-45.8984375,-0.3384193419617005,-0.10995574287564278,-0.11362093430483088,-1238,-1667,-1226,3878,311,100645
12:18:33.559,17199,997.0703125,273.4375,-42.96875,-0.3298672286269283,-0.13194689145077132,-0.10995574287564278,-1238,-1667,-1226,3878,311,100645
12:18:33.580,17200,989.2578125,266.6015625,-38.0859375,-0.30543261909900765,-0.10995574287564278,-0.11606439525762292,-1238,-1667,-1226,3878,311,100645
12:18:33.600,17201,989.2578125,266.6015625,-46.875,-0.2724458962363148,-0.09162978572970232,-0.1343903524035634,-1238,-1667,-1226,3878,311,100645
12:18:33.631,17202,989.2578125,257.8125,-55.6640625,-0.2309070600388498,-0.07452555906015788,-0.11728612573401895,-1238,-1667,-1226,3878,311,100645
12:18:33.651,17203,979.4921875,257.8125,-59.5703125,-0.17959438003021652,-0.05986479334340551,-0.06597344572538566,-1223,-1656,-1230,3878,311,100645
12:18:33.672,17204,958.984375,261.71875,-60.546875,-0.10262536001726659,-0.0671951762017817,-0.013439035240356337,-1223,-1656,-1230,3878,311,100645
12:18:33.692,17205,945.3125,267.578125,-63.4765625,-0.024434609527920613,-0.07452555906015788,0.03054326190990077,-1223,-1656,-1230,3878,311,100645
12:18:33.713,17206,951.171875,278.3203125,-60.546875,0.058643062867009474,-0.0952949771588904,0.05375614096142535,-1223,-1656,-1230,3878,311,100645
12:18:33.723,17207,958.0078125,275.390625,-52.734375,0.10140362954087055,-0.09285151620609834,0.0635299847725936,-1223,-1656,-1230,3878,311,100645
12:18:33.743,17208,970.703125,285.15625,-52.734375,0.12095131716320705,-0.0830776723949301,0.05375614096142535,-1237,-1656,-1229,3878,311,100645
12:18:33.784,17209,981.4453125,290.0390625,-55.6640625,0.0989601685880785,-0.07819075048934597,0.025656340004316647,-1237,-1656,-1229,3878,311,100645
12:18:33.794,17210,990.234375,297.8515625,-41.9921875,0.10629055144645469,-0.0476474885794452,-0.006108652381980153,-1237,-1656,-1229,3878,311,100645
12:18:33.815,17211,985.3515625,286.1328125,-42.96875,0.1343903524035634,-0.020769418098732523,-0.05009094953223726,-1237,-1656,-1229,3878,311,100645
12:18:33.835,17212,978.515625,291.015625,-42.96875,0.1466076571675237,-0.009773843811168246,-0.08063421144213802,-1235,-1658,-1227,3878,311,100645
12:18:33.855,17213,972.65625,282.2265625,-45.8984375,0.17592918860102844,-0.0012217304763960308,-0.09407324668249437,-1235,-1658,-1227,3878,311,100645
12:18:33.876,17214,952.1484375,277.34375,-52.734375,0.17715091907742447,-0.004886921905584123,-0.10018189906447451,-1235,-1658,-1227,3878,311,100645
12:18:33.886,17215,949.21875,265.625,-52.734375,0.17470745812463243,0.009773843811168246,-0.1343903524035634,-1235,-1658,-1227,3878,311,100645
12:18:33.906,17216,953.125,254.8828125,-45.8984375,0.17715091907742447,-0.0024434609527920616,-0.1307251609743753,-1235,-1658,-1227,3878,311,100645
12:18:33.927,17217,958.0078125,255.859375,-41.015625,0.16493361431346415,0.004886921905584123,-0.11239920382843484,-1235,-1661,-1231,3878,311,100645
12:18:33.947,17218,968.75,261.71875,-38.0859375,0.20036379812894903,-0.013439035240356337,-0.07208209810736582,-1235,-1661,-1231,3878,311,100645
12:18:33.967,17219,982.421875,259.765625,-34.1796875,0.2101376419401173,0.0,-0.0635299847725936,-1235,-1661,-1231,3878,311,100645
12:18:33.978,17220,995.1171875,251.953125,-31.25,0.23212879051524585,0.0,-0.07574728953655392,-1235,-1661,-1231,3878,311,100645
12:18:33.998,17221,1003.90625,262.6953125,-22.4609375,0.2504547476611863,0.004886921905584123,-0.07696902001294993,-1235,-1661,-1231,3878,311,100645
12:18:34.19,17222,1003.90625,258.7890625,-32.2265625,0.34941491624926485,0.010995574287564277,-0.03665191429188092,-1234,-1660,-1237,3878,311,100645
12:18:34.50,17223,1003.90625,245.1171875,-17.578125,0.47403142484165994,0.009773843811168246,0.0317649923862968,-1234,-1660,-1237,3878,311,100645
12:18:34.70,17224,1009.765625,255.859375,-24.4140625,0.5314527572322734,0.014660765716752368,0.0671951762017817,-1234,-1660,-1237,3878,311,100645
12:18:34.91,17225,1001.953125,253.90625,-31.25,0.592539281052075,0.029321531433504737,0.08429940287132612,-1234,-1660,-1237,3878,311,100645
12:18:34.111,17226,997.0703125,271.484375,-32.2265625,0.6438519610607082,0.04153883619746505,0.0867428638241182,-1234,-1660,-1237,3878,311,100645
12:18:34.122,17227,997.0703125,268.5546875,-41.015625,0.6878342582109653,0.03787364476827696,0.07330382858376185,-1236,-1668,-1239,3878,311,100646
12:18:34.142,17228,992.1875,251.953125,-53.7109375,0.6487388829662923,0.006108652381980153,0.0317649923862968,-1236,-1668,-1239,3878,311,100646
12:18:34.162,17229,986.328125,242.1875,-46.875,0.5436700619962337,-0.008552113334772215,-0.04398229715025711,-1236,-1668,-1239,3878,311,100646
12:18:34.203,17230,989.2578125,230.46875,-47.8515625,0.4300491276914028,-0.039095375244672985,-0.1075122819228507,-1236,-1668,-1239,3878,311,100646
12:18:34.213,17231,987.3046875,230.46875,-40.0390625,0.2956587752878394,-0.04031710572106901,-0.18081611050661253,-1239,-1674,-1252,3878,311,100646
12:18:34.234,17232,986.328125,212.890625,-34.1796875,0.24923301718479027,-0.029321531433504737,-0.2113593724165133,-1239,-1674,-1252,3878,311,100646
12:18:34.254,17233,989.2578125,202.1484375,-33.203125,0.2223549467040776,-0.024434609527920613,-0.22846359908605776,-1239,-1674,-1252,3878,311,100646
12:18:34.274,17234,1000.0,192.3828125,-30.2734375,0.2028072590817411,-0.009773843811168246,-0.2223549467040776,-1239,-1674,-1252,3878,311,100646
12:18:34.295,17235,994.140625,179.6875,-31.25,0.197920337176157,-0.003665191429188092,-0.18570303241219668,-1239,-1674,-1252,3878,311,100646
12:18:34.305,17236,983.3984375,174.8046875,-36.1328125,0.1954768762233649,0.008552113334772215,-0.15760323145508798,-1235,-1672,-1240,3878,311,100646
12:18:34.346,17237,978.515625,168.9453125,-42.96875,0.20402898955813717,0.01832595714594046,-0.13805554383275148,-1235,-1672,-1240,3878,311,100646
12:18:34.367,17238,983.3984375,166.9921875,-36.1328125,0.21991148575128555,0.01710422666954443,-0.07696902001294993,-1235,-1672,-1240,3878,311,100646
12:18:34.377,17239,997.0703125,164.0625,-36.1328125,0.20647245051092922,0.008552113334772215,-0.025656340004316647,-1235,-1672,-1240,3878,311,100646
12:18:34.397,17240,1008.7890625,174.8046875,-39.0625,0.1893682238413848,0.01710422666954443,-0.012217304763960306,-1235,-1672,-1240,3878,311,100646
12:18:34.418,17241,1010.7421875,183.59375,-54.6875,0.17470745812463243,0.021991148575128554,-0.01710422666954443,-1237,-1672,-1242,3878,311,100646
12:18:34.439,17242,1016.6015625,195.3125,-64.453125,0.1551597705022959,0.019547687622336492,-0.021991148575128554,-1237,-1672,-1242,3878,311,100646
12:18:34.459,17243,999.0234375,182.6171875,-69.3359375,0.07452555906015788,0.004886921905584123,-0.05619960191421742,-1237,-1672,-1242,3878,311,100646
12:18:34.469,17244,997.0703125,175.78125,-70.3125,-0.014660765716752368,-0.0012217304763960308,-0.08552113334772216,-1237,-1672,-1242,3878,311,100646
12:18:34.490,17245,991.2109375,159.1796875,-80.078125,-0.08429940287132612,-0.04153883619746505,-0.10629055144645469,-1234,-1674,-1244,3878,311,100646
12:18:34.510,17246,974.609375,150.390625,-83.0078125,-0.16371188383706814,-0.07208209810736582,-0.08796459430051422,-1234,-1674,-1244,3878,311,100646
12:18:34.531,17247,979.4921875,164.0625,-82.03125,-0.2223549467040776,-0.1038470904936626,-0.048869219055841226,-1234,-1674,-1244,3878,311,100646
12:18:34.541,17248,979.4921875,180.6640625,-75.1953125,-0.2076941809873252,-0.1392772743091475,-0.012217304763960306,-1234,-1674,-1244,3878,311,100646
12:18:34.561,17249,986.328125,181.640625,-70.3125,-0.17470745812463243,-0.15882496193148402,0.014660765716752368,-1234,-1674,-1244,3878,311,100646
12:18:34.582,17250,985.3515625,193.359375,-61.5234375,-0.15393804002589986,-0.17592918860102844,0.048869219055841226,-1233,-1671,-1238,3878,311,100646
12:18:34.622,17251,978.515625,201.171875,-64.453125,-0.15760323145508798,-0.1661553447898602,0.06475171524898964,-1233,-1671,-1238,3878,311,100646
12:18:34.632,17252,977.5390625,199.21875,-62.5,-0.15149457907310784,-0.17592918860102844,0.08063421144213802,-1233,-1671,-1238,3878,311,100646
12:18:34.653,17253,986.328125,220.703125,-51.7578125,-0.15760323145508798,-0.18448130193580062,0.1148426647812269,-1233,-1671,-1238,3878,311,100646
12:18:34.673,17254,996.09375,234.375,-54.6875,-0.16004669240788005,-0.19303341527057283,0.13316862192716736,-1233,-1671,-1238,3878,311,100646
12:18:34.693,17255,1004.8828125,230.46875,-50.78125,-0.14172073526193957,-0.1942551457469689,0.1356120828799594,-1234,-1674,-1239,3878,311,100646
12:18:34.703,17256,1006.8359375,232.421875,-38.0859375,-0.2162462943220974,-0.18325957145940464,0.09285151620609834,-1234,-1674,-1239,3878,311,100646
12:18:34.724,17257,1000.9765625,235.3515625,-36.1328125,-0.20647245051092922,-0.18448130193580062,0.06475171524898964,-1234,-1674,-1239,3878,311,100646
12:18:34.765,17258,997.0703125,274.4140625,-53.7109375,-0.23335052099164189,-0.15882496193148402,0.03054326190990077,-1234,-1674,-1239,3878,311,100646
12:18:34.785,17259,979.4921875,261.71875,-64.453125,-0.1942551457469689,-0.1502728485967118,0.0012217304763960308,-1229,-1675,-1254,3878,311,100646
12:18:34.795,17260,980.46875,250.0,-61.5234375,-0.17470745812463243,-0.12461650859239513,-0.023212879051524585,-1229,-1675,-1254,3878,311,100646
12:18:34.815,17261,986.328125,237.3046875,-56.640625,-0.22724186860966175,-0.12583823906879116,-0.03298672286269283,-1229,-1675,-1254,3878,311,100646
12:18:34.836,17262,986.328125,232.421875,-52.734375,-0.2822197400474831,-0.13316862192716736,-0.05009094953223726,-1229,-1675,-1254,3878,311,100646
12:18:34.856,17263,974.609375,230.46875,-60.546875,-0.3066543495754037,-0.14538592669112765,-0.0635299847725936,-1229,-1675,-1254,3878,311,100646
12:18:34.877,17264,985.3515625,241.2109375,-57.6171875,-0.2846632010002752,-0.14172073526193957,-0.03665191429188092,-1240,-1680,-1251,3878,311,100646
12:18:34.887,17265,985.3515625,244.140625,-46.875,-0.238237442897226,-0.1502728485967118,-0.007330382858376184,-1240,-1680,-1251,3878,311,100646
12:18:34.908,17266,991.2109375,244.140625,-43.9453125,-0.1893682238413848,-0.12583823906879116,0.007330382858376184,-1240,-1680,-1251,3878,311,100646
12:18:34.928,17267,984.375,236.328125,-54.6875,-0.16371188383706814,-0.11239920382843484,-0.013439035240356337,-1240,-1680,-1251,3878,311,100646
12:18:34.949,17268,980.46875,234.375,-62.5,-0.15882496193148402,-0.09162978572970232,0.01832595714594046,-1240,-1680,-1251,3878,311,100646
12:18:34.959,17269,979.4921875,244.140625,-64.453125,-0.14416419621473164,-0.08552113334772216,0.03420845333908886,-1234,-1680,-1242,3878,311,100646
12:18:34.979,17270,973.6328125,240.234375,-70.3125,-0.12217304763960309,-0.08429940287132612,0.04276056667386108,-1234,-1680,-1242,3878,311,100646
12:18:35.0,17271,975.5859375,244.140625,-72.265625,-0.13194689145077132,-0.07696902001294993,0.023212879051524585,-1234,-1680,-1242,3878,311,100646
12:18:35.40,17272,975.5859375,230.46875,-79.1015625,-0.20402898955813717,-0.06841690667817772,-0.020769418098732523,-1234,-1680,-1242,3878,311,100646
12:18:35.51,17273,971.6796875,213.8671875,-75.1953125,-0.3005456971934236,-0.06475171524898964,-0.06963863715457375,-1230,-1680,-1254,3878,311,100646
12:18:35.71,17274,967.7734375,233.3984375,-72.265625,-0.37507125625358145,-0.03543018381548489,-0.12095131716320705,-1230,-1680,-1254,3878,311,100646
12:18:35.91,17275,978.515625,224.609375,-80.078125,-0.35430183815484895,-0.0024434609527920616,-0.1356120828799594,-1230,-1680,-1254,3878,311,100646
12:18:35.111,17276,987.3046875,218.75,-82.03125,-0.29932396671702755,0.009773843811168246,-0.1429424657383356,-1230,-1680,-1254,3878,311,100646
12:18:35.122,17277,992.1875,214.84375,-84.9609375,-0.2528982086139784,0.008552113334772215,-0.12950343049797927,-1230,-1680,-1254,3872,311,100646
12:18:35.142,17278,985.3515625,230.46875,-93.75,-0.16493361431346415,0.013439035240356337,-0.08796459430051422,-1233,-1671,-1236,3872,311,100646
12:18:35.183,17279,974.609375,230.46875,-99.609375,-0.05742133239061345,0.004886921905584123,-0.03420845333908886,-1233,-1671,-1236,3872,311,100646
12:18:35.203,17280,972.65625,239.2578125,-103.515625,0.03543018381548489,-0.0012217304763960308,0.0024434609527920616,-1233,-1671,-1236,3872,311,100646
12:18:35.213,17281,970.703125,255.859375,-100.5859375,0.039095375244672985,-0.019547687622336492,0.023212879051524585,-1233,-1671,-1236,3872,311,100646
12:18:35.233,17282,967.7734375,246.09375,-99.609375,0.03420845333908886,-0.026878070480712675,-0.0024434609527920616,-1233,-1671,-1236,3872,311,100646
12:18:35.254,17283,970.703125,239.2578125,-88.8671875,-0.04031710572106901,-0.05986479334340551,-0.019547687622336492,-1232,-1673,-1244,3872,311,100646
12:18:35.274,17284,976.5625,256.8359375,-84.9609375,-0.1343903524035634,-0.10018189906447451,-0.03054326190990077,-1232,-1673,-1244,3872,311,100646
12:18:35.295,17285,988.28125,254.8828125,-83.0078125,-0.16126842288427604,-0.11606439525762292,-0.02809980095710871,-1232,-1673,-1244,3872,311,100646
12:18:35.305,17286,1007.8125,249.0234375,-81.0546875,-0.1893682238413848,-0.1478293876439197,-0.03787364476827696,-1232,-1673,-1244,3872,311,100646
12:18:35.325,17287,1020.5078125,245.1171875,-68.359375,-0.21258110289290938,-0.16493361431346415,-0.04153883619746505,-1236,-1671,-1244,3872,311,100646
12:18:35.346,17288,1000.0,246.09375,-63.4765625,-0.22479840765686968,-0.15882496193148402,-0.008552113334772215,-1236,-1671,-1244,3872,311,100646
12:18:35.366,17289,985.3515625,261.71875,-64.453125,-0.17470745812463243,-0.1478293876439197,0.008552113334772215,-1236,-1671,-1244,3872,311,100646
12:18:35.376,17290,992.1875,265.625,-67.3828125,-0.06108652381980154,-0.1343903524035634,0.03054326190990077,-1236,-1671,-1244,3872,311,100646
12:18:35.396,17291,994.140625,276.3671875,-73.2421875,0.048869219055841226,-0.09407324668249437,0.02809980095710871,-1236,-1671,-1244,3872,311,100646
12:18:35.417,17292,981.4453125,275.390625,-80.078125,0.17470745812463243,-0.058643062867009474,0.012217304763960306,-1234,-1676,-1251,3872,311,100646
12:18:35.458,17293,973.6328125,258.7890625,-85.9375,0.1954768762233649,-0.0476474885794452,-0.01710422666954443,-1234,-1676,-1251,3872,311,100646
12:18:35.468,17294,964.84375,253.90625,-93.75,0.16126842288427604,-0.06230825429619757,-0.0317649923862968,-1234,-1676,-1251,3872,311,100646
12:18:35.488,17295,974.609375,252.9296875,-92.7734375,0.11728612573401895,-0.08796459430051422,-0.058643062867009474,-1234,-1676,-1251,3872,311,100646
12:18:35.508,17296,984.375,250.0,-84.9609375,0.0671951762017817,-0.11728612573401895,-0.08552113334772216,-1234,-1676,-1251,3872,311,100646
12:18:35.529,17297,990.234375,232.421875,-76.171875,0.024434609527920613,-0.12217304763960309,-0.12461650859239513,-1235,-1673,-1248,3872,311,100646
12:18:35.550,17298,991.2109375,216.796875,-66.40625,-0.039095375244672985,-0.13316862192716736,-0.15882496193148402,-1235,-1673,-1248,3872,311,100646
12:18:35.560,17299,993.1640625,218.75,-65.4296875,-0.10629055144645469,-0.11972958668681102,-0.18814649336498873,-1235,-1673,-1248,3872,311,100646
12:18:35.601,17300,986.328125,208.984375,-64.453125,-0.1343903524035634,-0.08918632477691024,-0.20402898955813717,-1235,-1673,-1248,3872,311,100646
12:18:35.622,17301,983.3984375,200.1953125,-63.4765625,-0.1356120828799594,-0.07941248096574201,-0.2138028333693054,-1235,-1673,-1248,3872,311,100646
12:18:35.632,17302,980.46875,187.5,-63.4765625,-0.10140362954087055,-0.05986479334340551,-0.19669860669976097,-1237,-1675,-1248,3872,311,100646
12:18:35.653,17303,981.4453125,168.9453125,-69.3359375,-0.0867428638241182,-0.07330382858376185,-0.1661553447898602,-1237,-1675,-1248,3872,311,100646
12:18:35.673,17304,986.328125,172.8515625,-67.3828125,-0.11972958668681102,-0.08429940287132612,-0.10873401239924674,-1237,-1675,-1248,3872,311,100646
12:18:35.693,17305,983.3984375,173.828125,-64.453125,-0.14416419621473164,-0.09773843811168245,-0.06963863715457375,-1237,-1675,-1248,3872,311,100646
12:18:35.714,17306,984.375,178.7109375,-64.453125,-0.1710422666954443,-0.0989601685880785,-0.06230825429619757,-1236,-1667,-1252,3872,311,100646
12:18:35.744,17307,1000.0,180.6640625,-60.546875,-0.1954768762233649,-0.09040805525330627,-0.06475171524898964,-1236,-1667,-1252,3872,311,100646
12:18:35.765,17308,1002.9296875,190.4296875,-73.2421875,-0.23335052099164189,-0.10140362954087055,-0.07330382858376185,-1236,-1667,-1252,3872,311,100646
12:18:35.785,17309,1002.9296875,184.5703125,-76.171875,-0.25900686099595854,-0.09285151620609834,-0.08185594191853407,-1236,-1667,-1252,3872,311,100646
12:18:35.805,17310,998.046875,167.96875,-70.3125,-0.2858849314766712,-0.09162978572970232,-0.07330382858376185,-1236,-1667,-1252,3872,311,100646
12:18:35.815,17311,988.28125,200.1953125,-83.0078125,-0.32253684576855207,-0.10262536001726659,-0.07208209810736582,-1233,-1663,-1238,3872,311,100646
12:18:35.836,17312,974.609375,200.1953125,-85.9375,-0.32253684576855207,-0.1075122819228507,-0.05375614096142535,-1233,-1663,-1238,3872,311,100646
12:18:35.856,17313,977.5390625,208.984375,-89.84375,-0.2944370448114434,-0.11606439525762292,0.0024434609527920616,-1233,-1663,-1238,3872,311,100646
12:18:35.876,17314,976.5625,216.796875,-91.796875,-0.2846632010002752,-0.12217304763960309,0.026878070480712675,-1233,-1663,-1238,3872,311,100646
12:18:35.887,17315,971.6796875,228.515625,-87.890625,-0.2944370448114434,-0.13194689145077132,0.04398229715025711,-1233,-1663,-1238,3872,311,100646
12:18:35.907,17316,976.5625,238.28125,-82.03125,-0.2932153143350474,-0.13805554383275148,0.04398229715025711,-1240,-1662,-1240,3872,311,100646
12:18:35.927,17317,974.609375,235.3515625,-81.0546875,-0.29688050576423547,-0.1356120828799594,0.03054326190990077,-1240,-1662,-1240,3872,311,100646
12:18:35.947,17318,982.421875,239.2578125,-65.4296875,-0.32253684576855207,-0.11850785621041499,0.021991148575128554,-1240,-1662,-1240,3872,311,100646
12:18:35.968,17319,982.421875,238.28125,-69.3359375,-0.3652974124424132,-0.13194689145077132,0.01710422666954443,-1240,-1662,-1240,3872,311,100646
12:18:35.978,17320,980.46875,244.140625,-63.4765625,-0.37140606482439337,-0.11606439525762292,0.013439035240356337,-1244,-1661,-1232,3872,311,100646
12:18:36.19,17321,974.609375,250.9765625,-58.59375,-0.37629298672997746,-0.1148426647812269,0.014660765716752368,-1244,-1661,-1232,3872,311,100646
12:18:36.40,17322,966.796875,239.2578125,-58.59375,-0.3652974124424132,-0.1038470904936626,0.0,-1244,-1661,-1232,3872,311,100646
12:18:36.50,17323,969.7265625,237.3046875,-50.78125,-0.39217548292312593,-0.1038470904936626,0.003665191429188092,-1244,-1661,-1232,3872,311,100646
12:18:36.71,17324,976.5625,233.3984375,-57.6171875,-0.4459316238845512,-0.10018189906447451,0.006108652381980153,-1244,-1661,-1232,3872,311,100646
12:18:36.91,17325,982.421875,234.375,-42.96875,-0.47280969436526393,-0.0830776723949301,0.008552113334772215,-1243,-1664,-1230,3872,311,100646
12:18:36.112,17326,994.140625,241.2109375,-44.921875,-0.4703662334124718,-0.06597344572538566,0.039095375244672985,-1243,-1664,-1230,3872,311,100646
12:18:36.132,17327,990.234375,262.6953125,-46.875,-0.4227187448330266,-0.05009094953223726,0.06108652381980154,-1243,-1664,-1230,3872,311,100647
12:18:36.163,17328,997.0703125,265.625,-58.59375,-0.3335324200561164,-0.03054326190990077,0.07452555906015788,-1243,-1664,-1230,3872,311,100647
12:18:36.183,17329,989.2578125,270.5078125,-60.546875,-0.278554548618295,-0.012217304763960306,0.07086036763096978,-1243,-1664,-1230,3872,311,100647
12:18:36.204,17330,976.5625,265.625,-70.3125,-0.2736676267127109,0.010995574287564277,0.0476474885794452,-1241,-1662,-1225,3872,311,100647
12:18:36.224,17331,983.3984375,254.8828125,-75.1953125,-0.2883283924294633,0.006108652381980153,0.021991148575128554,-1241,-1662,-1225,3872,311,100647
12:18:36.234,17332,985.3515625,260.7421875,-82.03125,-0.33597588100890846,-0.01710422666954443,0.01832595714594046,-1241,-1662,-1225,3872,311,100647
12:18:36.255,17333,977.5390625,265.625,-80.078125,-0.32253684576855207,-0.029321531433504737,0.019547687622336492,-1241,-1662,-1225,3872,311,100647
12:18:36.275,17334,977.5390625,265.625,-82.03125,-0.2871066619530672,-0.03298672286269283,0.024434609527920613,-1244,-1664,-1224,3872,311,100647
12:18:36.295,17335,993.1640625,262.6953125,-78.125,-0.2431243648028101,-0.05742133239061345,0.03054326190990077,-1244,-1664,-1224,3872,311,100647
12:18:36.306,17336,1000.0,261.71875,-78.125,-0.20158552860534507,-0.04398229715025711,0.05009094953223726,-1244,-1664,-1224,3872,311,100647
12:18:36.326,17337,988.28125,276.3671875,-73.2421875,-0.13316862192716736,-0.039095375244672985,0.08552113334772216,-1244,-1664,-1224,3872,311,100647
12:18:36.347,17338,979.4921875,277.34375,-83.984375,-0.05497787143782139,-0.03665191429188092,0.10140362954087055,-1244,-1664,-1224,3872,311,100647
12:18:36.367,17339,977.5390625,281.25,-88.8671875,-0.03054326190990077,-0.03420845333908886,0.09285151620609834,-1245,-1663,-1223,3872,311,100647
12:18:36.387,17340,973.6328125,277.34375,-90.8203125,-0.03420845333908886,-0.0476474885794452,0.058643062867009474,-1245,-1663,-1223,3872,311,100647
12:18:36.398,17341,971.6796875,264.6484375,-85.9375,-0.07941248096574201,-0.05497787143782139,-0.0024434609527920616,-1245,-1663,-1223,3872,311,100647
12:18:36.439,17342,968.75,265.625,-83.984375,-0.1429424657383356,-0.04520402762665313,-0.07208209810736582,-1245,-1663,-1223,3872,311,100647
12:18:36.459,17343,975.5859375,260.7421875,-87.890625,-0.17226399717184035,-0.048869219055841226,-0.08429940287132612,-1245,-1663,-1223,3872,311,100647
12:18:36.479,17344,976.5625,253.90625,-83.0078125,-0.15638150097869194,-0.04642575810304917,-0.0989601685880785,-1241,-1668,-1226,3872,311,100647
12:18:36.490,17345,977.5390625,239.2578125,-79.1015625,-0.1502728485967118,-0.05619960191421742,-0.10506882097005865,-1241,-1668,-1226,3872,311,100647
12:18:36.510,17346,986.328125,246.09375,-70.3125,-0.11972958668681102,-0.05986479334340551,-0.07819075048934597,-1241,-1668,-1226,3872,311,100647
12:18:36.531,17347,998.046875,253.90625,-76.171875,-0.0671951762017817,-0.05375614096142535,-0.09040805525330627,-1241,-1668,-1226,3872,311,100647
12:18:36.552,17348,985.3515625,256.8359375,-79.1015625,0.023212879051524585,-0.03543018381548489,-0.0671951762017817,-1243,-1670,-1232,3872,311,100647
12:18:36.582,17349,987.3046875,257.8125,-82.03125,0.06230825429619757,-0.014660765716752368,-0.0830776723949301,-1243,-1670,-1232,3872,311,100647
12:18:36.602,17350,992.1875,249.0234375,-80.078125,0.06230825429619757,-0.04031710572106901,-0.0989601685880785,-1243,-1670,-1232,3872,311,100647
12:18:36.643,17351,993.1640625,246.09375,-73.2421875,0.010995574287564277,-0.05986479334340551,-0.12828170002158323,-1243,-1670,-1232,3872,311,100647
12:18:36.653,17352,976.5625,254.8828125,-75.1953125,-0.03787364476827696,-0.07819075048934597,-0.15393804002589986,-1243,-1670,-1232,3872,311,100647
12:18:36.673,17353,984.375,260.7421875,-70.3125,-0.026878070480712675,-0.07208209810736582,-0.16982053621904827,-1241,-1666,-1226,3872,311,100647
12:18:36.694,17354,978.515625,249.0234375,-69.3359375,-0.007330382858376184,-0.07330382858376185,-0.16493361431346415,-1241,-1666,-1226,3872,311,100647
12:18:36.715,17355,975.5859375,255.859375,-70.3125,0.014660765716752368,-0.08063421144213802,-0.1233947781159991,-1241,-1666,-1226,3872,311,100647
12:18:36.735,17356,1000.9765625,247.0703125,-62.5,0.0317649923862968,-0.08552113334772216,-0.11972958668681102,-1241,-1666,-1226,3872,311,100647
12:18:36.746,17357,1012.6953125,248.046875,-45.8984375,0.07208209810736582,-0.1038470904936626,-0.10140362954087055,-1241,-1666,-1226,3872,311,100647
12:18:36.766,17358,993.1640625,261.71875,-56.640625,0.1429424657383356,-0.11239920382843484,-0.06108652381980154,-1238,-1658,-1241,3872,311,100647
12:18:36.787,17359,965.8203125,266.6015625,-68.359375,0.2528982086139784,-0.07452555906015788,-0.021991148575128554,-1238,-1658,-1241,3872,311,100647
12:18:36.807,17360,971.6796875,262.6953125,-65.4296875,0.33597588100890846,-0.06597344572538566,0.009773843811168246,-1238,-1658,-1241,3872,311,100647
12:18:36.818,17361,981.4453125,263.671875,-58.59375,0.2932153143350474,-0.0867428638241182,-0.023212879051524585,-1238,-1658,-1241,3872,311,100647
12:18:36.838,17362,991.2109375,248.046875,-52.734375,0.1905899543177808,-0.0989601685880785,-0.0867428638241182,-1237,-1666,-1214,3872,311,100647
12:18:36.859,17363,980.46875,240.234375,-60.546875,0.10506882097005865,-0.10018189906447451,-0.1233947781159991,-1237,-1666,-1214,3872,311,100647
12:18:36.880,17364,982.421875,250.0,-53.7109375,0.0317649923862968,-0.10018189906447451,-0.14049900478554353,-1237,-1666,-1214,3872,311,100647
12:18:36.890,17365,986.328125,241.2109375,-49.8046875,0.05375614096142535,-0.08429940287132612,-0.1343903524035634,-1237,-1666,-1214,3872,311,100647
12:18:36.911,17366,995.1171875,243.1640625,-47.8515625,0.0952949771588904,-0.06108652381980154,-0.12095131716320705,-1237,-1666,-1214,3872,311,100647
12:18:36.931,17367,990.234375,234.375,-50.78125,0.10262536001726659,-0.06597344572538566,-0.1307251609743753,-1241,-1666,-1221,3872,311,100647
12:18:36.952,17368,971.6796875,213.8671875,-54.6875,0.11239920382843484,-0.04520402762665313,-0.12095131716320705,-1241,-1666,-1221,3872,311,100647
12:18:36.962,17369,971.6796875,226.5625,-61.5234375,0.10506882097005865,-0.04520402762665313,-0.09651670763528641,-1241,-1666,-1221,3872,311,100647
12:18:37.3,17370,975.5859375,233.3984375,-65.4296875,0.11850785621041499,-0.04276056667386108,-0.08429940287132612,-1241,-1666,-1221,3872,311,100647
12:18:37.23,17371,975.5859375,230.46875,-63.4765625,0.12828170002158323,-0.03665191429188092,-0.08552113334772216,-1241,-1666,-1221,3872,311,100647
12:18:37.43,17372,981.4453125,228.515625,-67.3828125,0.09285151620609834,-0.03665191429188092,-0.09651670763528641,-1240,-1663,-1223,3872,311,100647
12:18:37.53,17373,984.375,229.4921875,-70.3125,0.05986479334340551,-0.03787364476827696,-0.09773843811168245,-1240,-1663,-1223,3872,311,100647
12:18:37.73,17374,991.2109375,233.3984375,-65.4296875,0.04153883619746505,-0.03665191429188092,-0.09285151620609834,-1240,-1663,-1223,3872,311,100647
12:18:37.94,17375,994.140625,236.328125,-60.546875,0.05009094953223726,-0.0158824961931484,-0.0830776723949301,-1240,-1663,-1223,3872,311,100647
12:18:37.114,17376,996.09375,234.375,-68.359375,0.05742133239061345,-0.014660765716752368,-0.09651670763528641,-1240,-1663,-1223,3872,311,100647
12:18:37.134,17377,998.046875,229.4921875,-73.2421875,0.04031710572106901,-0.007330382858376184,-0.07574728953655392,-1232,-1661,-1219,3872,311,100646
12:18:37.144,17378,994.140625,229.4921875,-76.171875,0.023212879051524585,0.0024434609527920616,-0.07452555906015788,-1232,-1661,-1219,3872,311,100646
12:18:37.165,17379,988.28125,233.3984375,-80.078125,0.039095375244672985,-0.008552113334772215,-0.07208209810736582,-1232,-1661,-1219,3872,311,100646
12:18:37.185,17380,972.65625,218.75,-83.0078125,0.0317649923862968,-0.003665191429188092,-0.058643062867009474,-1232,-1661,-1219,3872,311,100646
12:18:37.205,17381,963.8671875,209.9609375,-94.7265625,0.0024434609527920616,-0.0024434609527920616,-0.039095375244672985,-1232,-1663,-1237,3872,311,100646
12:18:37.226,17382,961.9140625,214.84375,-94.7265625,-0.04398229715025711,-0.021991148575128554,-0.0012217304763960308,-1232,-1663,-1237,3872,311,100646
12:18:37.236,17383,969.7265625,219.7265625,-90.8203125,-0.09407324668249437,-0.03420845333908886,-0.021991148575128554,-1232,-1663,-1237,3872,311,100646
12:18:37.277,17384,974.609375,227.5390625,-87.890625,-0.13316862192716736,-0.048869219055841226,-0.026878070480712675,-1232,-1663,-1237,3872,311,100646
12:18:37.297,17385,976.5625,211.9140625,-93.75,-0.14416419621473164,-0.05742133239061345,-0.020769418098732523,-1232,-1663,-1237,3872,311,100646
12:18:37.307,17386,976.5625,235.3515625,-100.5859375,-0.1820378409830086,-0.07208209810736582,0.004886921905584123,-1236,-1661,-1238,3872,311,100646
12:18:37.327,17387,988.28125,235.3515625,-94.7265625,-0.19303341527057283,-0.08796459430051422,-0.009773843811168246,-1236,-1661,-1238,3872,311,100646
12:18:37.347,17388,991.2109375,219.7265625,-83.0078125,-0.23212879051524585,-0.10506882097005865,-0.04153883619746505,-1236,-1661,-1238,3872,311,100646
12:18:37.368,17389,990.234375,229.4921875,-85.9375,-0.2907718533822553,-0.1356120828799594,-0.05619960191421742,-1236,-1661,-1238,3872,311,100646
12:18:37.388,17390,985.3515625,219.7265625,-83.0078125,-0.31154127148098787,-0.1551597705022959,-0.05009094953223726,-1236,-1661,-1238,3872,311,100646
12:18:37.419,17391,993.1640625,219.7265625,-74.21875,-0.3298672286269283,-0.16371188383706814,-0.026878070480712675,-1234,-1663,-1226,3872,311,100646
12:18:37.439,17392,988.28125,225.5859375,-63.4765625,-0.35430183815484895,-0.15882496193148402,-0.020769418098732523,-1234,-1663,-1226,3872,311,100646
12:18:37.459,17393,981.4453125,235.3515625,-61.5234375,-0.31520646291017596,-0.16859880574265224,-0.01710422666954443,-1234,-1663,-1226,3872,311,100646
12:18:37.480,17394,979.4921875,232.421875,-65.4296875,-0.24923301718479027,-0.15393804002589986,0.0024434609527920616,-1234,-1663,-1226,3872,311,100646
12:18:37.490,17395,990.234375,225.5859375,-61.5234375,-0.23335052099164189,-0.14416419621473164,0.039095375244672985,-1234,-1659,-1228,3872,311,100646
12:18:37.510,17396,996.09375,233.3984375,-59.5703125,-0.2419026343264141,-0.16004669240788005,0.08918632477691024,-1234,-1659,-1228,3872,311,100646
12:18:37.531,17397,988.28125,248.046875,-56.640625,-0.2345722514680379,-0.16982053621904827,0.1075122819228507,-1234,-1659,-1228,3872,311,100646
12:18:37.561,17398,979.4921875,254.8828125,-52.734375,-0.2223549467040776,-0.1661553447898602,0.0952949771588904,-1234,-1659,-1228,3872,311,100646
12:18:37.581,17399,968.75,250.9765625,-55.6640625,-0.2162462943220974,-0.1392772743091475,0.08063421144213802,-1234,-1659,-1228,3872,311,100646
12:18:37.602,17400,972.65625,258.7890625,-60.546875,-0.22724186860966175,-0.11606439525762292,0.06963863715457375,-1235,-1660,-1214,3872,311,100646
12:18:37.622,17401,974.609375,262.6953125,-47.8515625,-0.23701571242082997,-0.10140362954087055,0.048869219055841226,-1235,-1660,-1214,3872,311,100646
12:18:37.642,17402,975.5859375,256.8359375,-50.78125,-0.2467895562319982,-0.09285151620609834,0.019547687622336492,-1235,-1660,-1214,3872,311,100646
12:18:37.652,17403,976.5625,246.09375,-54.6875,-0.2687807048071268,-0.07574728953655392,-0.007330382858376184,-1235,-1660,-1214,3872,311,100646
12:18:37.673,17404,993.1640625,256.8359375,-48.828125,-0.28099800957108706,-0.052534410485029326,0.0,-1235,-1660,-1214,3872,311,100646
12:18:37.693,17405,992.1875,262.6953125,-54.6875,-0.24801128670839426,-0.03054326190990077,0.01710422666954443,-1232,-1655,-1217,3872,311,100646
12:18:37.713,17406,997.0703125,266.6015625,-55.6640625,-0.21258110289290938,0.0,0.0024434609527920616,-1232,-1655,-1217,3872,311,100646
12:18:37.734,17407,992.1875,263.671875,-69.3359375,-0.20525072003453318,-0.003665191429188092,0.008552113334772215,-1232,-1655,-1217,3872,311,100646
12:18:37.744,17408,981.4453125,269.53125,-77.1484375,-0.1954768762233649,0.024434609527920613,0.004886921905584123,-1232,-1655,-1217,3872,311,100646
12:18:37.764,17409,972.65625,264.6484375,-87.890625,-0.16859880574265224,0.013439035240356337,0.003665191429188092,-1238,-1663,-1223,3872,311,100646
12:18:37.785,17410,975.5859375,262.6953125,-94.7265625,-0.1343903524035634,0.009773843811168246,0.003665191429188092,-1238,-1663,-1223,3872,311,100646
12:18:37.805,17411,972.65625,263.671875,-96.6796875,-0.13683381335635544,0.008552113334772215,-0.014660765716752368,-1238,-1663,-1223,3872,311,100646
12:18:37.835,17412,968.75,260.7421875,-98.6328125,-0.15760323145508798,-0.003665191429188092,-0.03298672286269283,-1238,-1663,-1223,3872,311,100646
12:18:37.855,17413,958.984375,251.953125,-101.5625,-0.16737707526625623,-0.020769418098732523,-0.05375614096142535,-1238,-1663,-1223,3872,311,100646
12:18:37.875,17414,958.984375,253.90625,-95.703125,-0.19914206765255302,-0.03298672286269283,-0.03543018381548489,-1235,-1660,-1213,3872,311,100646
12:18:37.896,17415,959.9609375,259.765625,-95.703125,-0.16982053621904827,-0.04520402762665313,-0.006108652381980153,-1235,-1660,-1213,3872,311,100646
12:18:37.916,17416,966.796875,264.6484375,-88.8671875,-0.11606439525762292,-0.05375614096142535,0.012217304763960306,-1235,-1660,-1213,3872,311,100646
12:18:37.926,17417,971.6796875,264.6484375,-83.0078125,-0.09773843811168245,-0.06475171524898964,0.010995574287564277,-1235,-1660,-1213,3872,311,100646
12:18:37.946,17418,975.5859375,267.578125,-80.078125,-0.09651670763528641,-0.04642575810304917,0.003665191429188092,-1235,-1660,-1213,3872,311,100646
12:18:37.987,17419,970.703125,267.578125,-77.1484375,-0.09040805525330627,-0.03420845333908886,0.008552113334772215,-1235,-1661,-1228,3872,311,100646
12:18:37.997,17420,964.84375,277.34375,-69.3359375,-0.04398229715025711,-0.03420845333908886,0.009773843811168246,-1235,-1661,-1228,3872,311,100646
12:18:38.17,17421,957.03125,284.1796875,-71.2890625,0.024434609527920613,-0.051312680008633295,0.0158824961931484,-1235,-1661,-1228,3872,311,100646
12:18:38.38,17422,941.40625,281.25,-75.1953125,0.03543018381548489,-0.039095375244672985,0.010995574287564277,-1235,-1661,-1228,3872,311,100646
12:18:38.58,17423,932.6171875,278.3203125,-68.359375,0.01710422666954443,-0.05009094953223726,-0.021991148575128554,-1239,-1663,-1226,3872,311,100646
12:18:38.79,17424,958.0078125,267.578125,-65.4296875,-0.06841690667817772,-0.04276056667386108,-0.0635299847725936,-1239,-1663,-1226,3872,311,100646
12:18:38.89,17425,991.2109375,272.4609375,-57.6171875,-0.1820378409830086,-0.0635299847725936,-0.09285151620609834,-1239,-1663,-1226,3872,311,100646
12:18:38.109,17426,1015.625,277.34375,-50.78125,-0.1942551457469689,-0.0635299847725936,-0.1075122819228507,-1239,-1663,-1226,3872,311,100646
12:18:38.129,17427,1034.1796875,291.9921875,-55.6640625,-0.10995574287564278,-0.052534410485029326,-0.0830776723949301,-1239,-1663,-1226,3820,311,100646
12:18:38.150,17428,1019.53125,294.921875,-57.6171875,0.0635299847725936,-0.012217304763960306,-0.06475171524898964,-1229,-1663,-1221,3820,311,100646
12:18:38.170,17429,1011.71875,296.875,-60.546875,0.2846632010002752,0.013439035240356337,-0.0024434609527920616,-1229,-1663,-1221,3820,311,100646
12:18:38.180,17430,1007.8125,282.2265625,-70.3125,0.42394047530942264,0.03787364476827696,0.014660765716752368,-1229,-1663,-1221,3820,311,100646
12:18:38.201,17431,991.2109375,278.3203125,-77.1484375,0.45081854579013536,0.029321531433504737,0.014660765716752368,-1229,-1663,-1221,3820,311,100646
12:18:38.221,17432,980.46875,271.484375,-88.8671875,0.4422664324553632,0.025656340004316647,-0.003665191429188092,-1229,-1663,-1221,3820,311,100646
12:18:38.251,17433,974.609375,270.5078125,-91.796875,0.41294490102185843,-0.012217304763960306,-0.0476474885794452,-1234,-1667,-1226,3820,311,100646
12:18:38.272,17434,973.6328125,251.953125,-89.84375,0.3274237676741363,-0.04153883619746505,-0.09040805525330627,-1234,-1667,-1226,3820,311,100646
12:18:38.292,17435,971.6796875,246.09375,-76.171875,0.2150245638457014,-0.06963863715457375,-0.15882496193148402,-1234,-1667,-1226,3820,311,100646
12:18:38.312,17436,982.421875,242.1875,-70.3125,0.1392772743091475,-0.09285151620609834,-0.20158552860534507,-1234,-1667,-1226,3820,311,100646
12:18:38.333,17437,985.3515625,233.3984375,-64.453125,0.1075122819228507,-0.06108652381980154,-0.26022859147235455,-1237,-1674,-1233,3820,311,100646
12:18:38.343,17438,999.0234375,221.6796875,-63.4765625,0.07819075048934597,-0.051312680008633295,-0.2846632010002752,-1237,-1674,-1233,3820,311,100646
12:18:38.363,17439,1005.859375,208.984375,-62.5,0.07330382858376185,-0.05009094953223726,-0.2700024352835228,-1237,-1674,-1233,3820,311,100646
12:18:38.404,17440,1005.859375,203.125,-59.5703125,0.08063421144213802,-0.05986479334340551,-0.24923301718479027,-1237,-1674,-1233,3820,311,100646
12:18:38.425,17441,1000.9765625,198.2421875,-60.546875,0.08185594191853407,-0.052534410485029326,-0.23335052099164189,-1237,-1674,-1233,3820,311,100646
12:18:38.435,17442,994.140625,188.4765625,-61.5234375,0.06475171524898964,-0.05009094953223726,-0.2076941809873252,-1234,-1660,-1235,3820,311,100646
12:18:38.455,17443,985.3515625,191.40625,-69.3359375,0.0476474885794452,-0.04642575810304917,-0.17959438003021652,-1234,-1660,-1235,3820,311,100646
12:18:38.476,17444,983.3984375,198.2421875,-72.265625,0.04398229715025711,-0.03054326190990077,-0.15271630954950383,-1234,-1660,-1235,3820,311,100646
12:18:38.496,17445,983.3984375,195.3125,-76.171875,0.039095375244672985,-0.03054326190990077,-0.12461650859239513,-1234,-1660,-1235,3820,311,100646
12:18:38.507,17446,986.328125,197.265625,-81.0546875,0.03787364476827696,-0.03298672286269283,-0.09773843811168245,-1234,-1660,-1235,3820,311,100646
12:18:38.527,17447,990.234375,208.0078125,-83.984375,0.03543018381548489,-0.04153883619746505,-0.05009094953223726,-1231,-1653,-1224,3820,311,100646
12:18:38.548,17448,986.328125,221.6796875,-83.984375,0.039095375244672985,-0.05009094953223726,-0.006108652381980153,-1231,-1653,-1224,3820,311,100646
12:18:38.568,17449,977.5390625,228.515625,-87.890625,0.07452555906015788,-0.048869219055841226,0.0158824961931484,-1231,-1653,-1224,3820,311,100646
12:18:38.578,17450,975.5859375,229.4921875,-97.65625,0.07574728953655392,-0.05742133239061345,0.010995574287564277,-1231,-1653,-1224,3820,311,100646
12:18:38.599,17451,980.46875,241.2109375,-97.65625,0.04153883619746505,-0.04398229715025711,0.03543018381548489,-1231,-1653,-1224,3820,311,100646
12:18:38.619,17452,983.3984375,249.0234375,-100.5859375,0.025656340004316647,-0.06597344572538566,0.05497787143782139,-1231,-1660,-1228,3820,311,100646
12:18:38.639,17453,981.4453125,245.1171875,-99.609375,0.008552113334772215,-0.08429940287132612,0.039095375244672985,-1231,-1660,-1228,3820,311,100646
12:18:38.670,17454,985.3515625,257.8125,-99.609375,-0.024434609527920613,-0.10018189906447451,0.03298672286269283,-1231,-1660,-1228,3820,311,100646
12:18:38.690,17455,980.46875,247.0703125,-98.6328125,-0.04398229715025711,-0.10018189906447451,0.012217304763960306,-1231,-1660,-1228,3820,311,100646
12:18:38.711,17456,981.4453125,263.671875,-92.7734375,-0.05742133239061345,-0.10629055144645469,0.01710422666954443,-1243,-1665,-1240,3820,311,100646
12:18:38.731,17457,979.4921875,260.7421875,-96.6796875,-0.06597344572538566,-0.11972958668681102,0.01710422666954443,-1243,-1665,-1240,3820,311,100646
12:18:38.751,17458,989.2578125,253.90625,-94.7265625,-0.07696902001294993,-0.12461650859239513,0.008552113334772215,-1243,-1665,-1240,3820,311,100646
12:18:38.761,17459,1000.9765625,233.3984375,-80.078125,-0.1343903524035634,-0.13316862192716736,-0.013439035240356337,-1243,-1665,-1240,3820,311,100646
12:18:38.782,17460,1012.6953125,208.984375,-72.265625,-0.23945917337362205,-0.14172073526193957,-0.004886921905584123,-1243,-1665,-1240,3820,311,100646
12:18:38.822,17461,998.046875,209.9609375,-68.359375,-0.31642819338657197,-0.14416419621473164,0.04398229715025711,-1239,-1665,-1240,3820,311,100646
12:18:38.843,17462,976.5625,227.5390625,-63.4765625,-0.27733281814189903,-0.12950343049797927,0.09407324668249437,-1239,-1665,-1240,3820,311,100646
12:18:38.853,17463,958.984375,249.0234375,-69.3359375,-0.1820378409830086,-0.1075122819228507,0.1307251609743753,-1239,-1665,-1240,3820,311,100646
12:18:38.873,17464,955.078125,252.9296875,-77.1484375,-0.08918632477691024,-0.08552113334772216,0.1233947781159991,-1239,-1665,-1240,3820,311,100646
12:18:38.893,17465,966.796875,245.1171875,-87.890625,-0.019547687622336492,-0.06963863715457375,0.10995574287564278,-1239,-1665,-1240,3820,311,100646
12:18:38.914,17466,957.03125,231.4453125,-91.796875,-0.04031710572106901,-0.08063421144213802,0.09651670763528641,-1238,-1667,-1219,3820,311,100646
12:18:38.924,17467,952.1484375,241.2109375,-95.703125,-0.09162978572970232,-0.0952949771588904,0.12828170002158323,-1238,-1667,-1219,3820,311,100646
12:18:38.964,17468,954.1015625,264.6484375,-93.75,-0.07819075048934597,-0.12583823906879116,0.15638150097869194,-1238,-1667,-1219,3820,311,100646
12:18:38.985,17469,958.0078125,264.6484375,-90.8203125,-0.04153883619746505,-0.12950343049797927,0.11850785621041499,-1238,-1667,-1219,3820,311,100646
12:18:39.5,17470,969.7265625,254.8828125,-87.890625,-0.06963863715457375,-0.1478293876439197,0.09285151620609834,-1241,-1672,-1233,3820,311,100646
12:18:39.16,17471,980.46875,251.953125,-81.0546875,-0.10995574287564278,-0.14905111812031577,0.07819075048934597,-1241,-1672,-1233,3820,311,100646
12:18:39.36,17472,987.3046875,259.765625,-78.125,-0.14905111812031577,-0.1392772743091475,0.058643062867009474,-1241,-1672,-1233,3820,311,100646
12:18:39.56,17473,988.28125,268.5546875,-70.3125,-0.12950343049797927,-0.12461650859239513,0.03665191429188092,-1241,-1672,-1233,3820,311,100646
12:18:39.77,17474,993.1640625,270.5078125,-63.4765625,-0.07208209810736582,-0.10873401239924674,0.021991148575128554,-1241,-1672,-1233,3820,311,100646
12:18:39.87,17475,985.3515625,268.5546875,-60.546875,-0.004886921905584123,-0.09162978572970232,0.003665191429188092,-1240,-1677,-1222,3820,311,100646
12:18:39.108,17476,984.375,246.09375,-56.640625,0.007330382858376184,-0.06475171524898964,-0.03054326190990077,-1240,-1677,-1222,3820,311,100646
12:18:39.169,17477,978.515625,250.9765625,-59.5703125,-0.02809980095710871,-0.05986479334340551,-0.04153883619746505,-1240,-1677,-1222,3872,311,100648
12:18:39.179,17478,968.75,253.90625,-55.6640625,-0.048869219055841226,-0.03420845333908886,-0.052534410485029326,-1240,-1677,-1222,3872,311,100648
12:18:39.199,17479,976.5625,242.1875,-49.8046875,-0.023212879051524585,-0.01832595714594046,-0.0635299847725936,-1240,-1677,-1222,3872,311,100648
12:18:39.220,17480,975.5859375,228.515625,-50.78125,-0.04642575810304917,-0.008552113334772215,-0.07819075048934597,-1239,-1683,-1211,3872,311,100648
12:18:39.241,17481,972.65625,227.5390625,-51.7578125,-0.058643062867009474,-0.006108652381980153,-0.05619960191421742,-1239,-1683,-1211,3872,311,100648
12:18:39.261,17482,967.7734375,227.5390625,-54.6875,-0.05986479334340551,0.004886921905584123,-0.06230825429619757,-1239,-1683,-1211,3872,311,100648
12:18:39.272,17483,975.5859375,230.46875,-46.875,-0.07330382858376185,0.0158824961931484,-0.0671951762017817,-1239,-1683,-1211,3872,311,100648
12:18:39.292,17484,986.328125,229.4921875,-48.828125,-0.08063421144213802,0.029321531433504737,-0.08552113334772216,-1238,-1677,-1234,3872,311,100648
12:18:39.313,17485,990.234375,220.703125,-50.78125,-0.08552113334772216,0.05742133239061345,-0.08918632477691024,-1238,-1677,-1234,3872,311,100648
12:18:39.333,17486,984.375,222.65625,-57.6171875,-0.07941248096574201,0.07574728953655392,-0.08918632477691024,-1238,-1677,-1234,3872,311,100648
12:18:39.343,17487,986.328125,239.2578125,-66.40625,-0.014660765716752368,0.09162978572970232,-0.0671951762017817,-1238,-1677,-1234,3872,311,100648
12:18:39.364,17488,998.046875,237.3046875,-73.2421875,0.06230825429619757,0.10629055144645469,-0.06841690667817772,-1238,-1677,-1234,3872,311,100648
12:18:39.384,17489,992.1875,234.375,-79.1015625,0.08429940287132612,0.10629055144645469,-0.08185594191853407,-1240,-1677,-1230,3872,311,100648
12:18:39.404,17490,980.46875,214.84375,-82.03125,0.05497787143782139,0.09773843811168245,-0.1038470904936626,-1240,-1677,-1230,3872,311,100648
12:18:39.425,17491,978.515625,217.7734375,-90.8203125,0.026878070480712675,0.07574728953655392,-0.09651670763528641,-1240,-1677,-1230,3872,311,100648
12:18:39.435,17492,979.4921875,208.984375,-90.8203125,-0.003665191429188092,0.07452555906015788,-0.09040805525330627,-1240,-1677,-1230,3872,311,100648
12:18:39.455,17493,974.609375,217.7734375,-90.8203125,-0.03543018381548489,0.052534410485029326,-0.11239920382843484,-1240,-1677,-1230,3872,311,100648
12:18:39.475,17494,976.5625,210.9375,-91.796875,-0.05742133239061345,0.05009094953223726,-0.11362093430483088,-1239,-1678,-1236,3872,311,100648
12:18:39.496,17495,985.3515625,208.984375,-83.984375,-0.0830776723949301,0.04031710572106901,-0.12583823906879116,-1239,-1678,-1236,3872,311,100648
12:18:39.506,17496,987.3046875,210.9375,-79.1015625,-0.07208209810736582,0.021991148575128554,-0.1111774733520388,-1239,-1678,-1236,3872,311,100648
12:18:39.527,17497,994.140625,226.5625,-86.9140625,-0.01832595714594046,0.01710422666954443,-0.09285151620609834,-1239,-1678,-1236,3872,311,100648
12:18:39.547,17498,1010.7421875,225.5859375,-80.078125,0.01832595714594046,0.021991148575128554,-0.0952949771588904,-1233,-1669,-1241,3872,311,100648
12:18:39.568,17499,1013.671875,213.8671875,-77.1484375,0.019547687622336492,-0.003665191429188092,-0.08429940287132612,-1233,-1669,-1241,3872,311,100648
12:18:39.589,17500,1000.9765625,208.984375,-76.171875,-0.007330382858376184,-0.021991148575128554,-0.07941248096574201,-1233,-1669,-1241,3872,311,100648
12:18:39.599,17501,995.1171875,209.9609375,-77.1484375,-0.07452555906015788,-0.020769418098732523,-0.08063421144213802,-1233,-1669,-1241,3872,311,100648
12:18:39.619,17502,991.2109375,219.7265625,-76.171875,-0.08429940287132612,-0.0158824961931484,-0.06475171524898964,-1233,-1669,-1241,3872,311,100648
12:18:39.660,17503,996.09375,237.3046875,-72.265625,-0.04642575810304917,-0.020769418098732523,-0.04398229715025711,-1238,-1671,-1236,3872,311,100648
12:18:39.670,17504,1007.8125,232.421875,-62.5,-0.010995574287564277,-0.026878070480712675,-0.02809980095710871,-1238,-1671,-1236,3872,311,100648
12:18:39.691,17505,1003.90625,228.515625,-60.546875,0.03665191429188092,-0.03787364476827696,-0.025656340004316647,-1238,-1671,-1236,3872,311,100648
12:18:39.711,17506,987.3046875,216.796875,-65.4296875,0.02809980095710871,-0.014660765716752368,-0.023212879051524585,-1238,-1671,-1236,3872,311,100648
12:18:39.732,17507,987.3046875,234.375,-67.3828125,0.05742133239061345,0.012217304763960306,0.004886921905584123,-1238,-1671,-1236,3872,311,100648
12:18:39.752,17508,984.375,241.2109375,-64.453125,0.11606439525762292,0.024434609527920613,0.03054326190990077,-1235,-1669,-1248,3872,311,100648
12:18:39.762,17509,980.46875,242.1875,-65.4296875,0.23579398194443396,0.025656340004316647,0.03420845333908886,-1235,-1669,-1248,3872,311,100648
12:18:39.803,17510,984.375,229.4921875,-65.4296875,0.27611108766550296,0.01832595714594046,0.025656340004316647,-1235,-1669,-1248,3872,311,100648
12:18:39.824,17511,992.1875,236.328125,-65.4296875,0.2614503219487506,0.010995574287564277,0.03298672286269283,-1235,-1669,-1248,3872,311,100648
12:18:39.834,17512,997.0703125,235.3515625,-81.0546875,0.2724458962363148,0.01832595714594046,0.04153883619746505,-1232,-1673,-1246,3872,311,100648
12:18:39.855,17513,1002.9296875,250.0,-76.171875,0.3139847324337799,0.0024434609527920616,0.05375614096142535,-1232,-1673,-1246,3872,311,100648
12:18:39.875,17514,1005.859375,245.1171875,-80.078125,0.3530801076784529,0.0158824961931484,0.04642575810304917,-1232,-1673,-1246,3872,311,100648
12:18:39.895,17515,1000.0,219.7265625,-78.125,0.3139847324337799,-0.006108652381980153,0.009773843811168246,-1232,-1673,-1246,3872,311,100648
12:18:39.916,17516,986.328125,207.03125,-78.125,0.20036379812894903,-0.021991148575128554,-0.024434609527920613,-1232,-1673,-1246,3872,311,100648
12:18:39.926,17517,973.6328125,199.21875,-82.03125,0.05375614096142535,-0.04153883619746505,-0.048869219055841226,-1228,-1681,-1249,3872,311,100648
12:18:39.946,17518,972.65625,198.2421875,-80.078125,-0.01832595714594046,-0.06963863715457375,-0.03787364476827696,-1228,-1681,-1249,3872,311,100648
12:18:39.967,17519,979.4921875,217.7734375,-67.3828125,-0.05986479334340551,-0.09285151620609834,-0.02809980095710871,-1228,-1681,-1249,3872,311,100648
12:18:39.987,17520,976.5625,213.8671875,-54.6875,-0.06230825429619757,-0.12095131716320705,-0.02809980095710871,-1228,-1681,-1249,3872,311,100648
12:18:39.997,17521,973.6328125,206.0546875,-46.875,-0.09040805525330627,-0.11972958668681102,-0.04642575810304917,-1228,-1681,-1249,3872,311,100648
12:18:40.17,17522,978.515625,206.0546875,-41.015625,-0.1111774733520388,-0.11728612573401895,-0.04642575810304917,-1228,-1681,-1256,3872,311,100648
12:18:40.38,17523,985.3515625,212.890625,-35.15625,-0.11728612573401895,-0.08918632477691024,-0.02809980095710871,-1228,-1681,-1256,3872,311,100648
12:18:40.79,17524,988.28125,215.8203125,-35.15625,-0.11606439525762292,-0.08185594191853407,-0.04398229715025711,-1228,-1681,-1256,3872,311,100648
12:18:40.89,17525,989.2578125,211.9140625,-26.3671875,-0.08918632477691024,-0.058643062867009474,-0.03787364476827696,-1228,-1681,-1256,3872,311,100648
12:18:40.110,17526,982.421875,209.9609375,-27.34375,-0.08552113334772216,-0.05619960191421742,-0.0476474885794452,-1228,-1681,-1256,3872,311,100648
12:18:40.130,17527,967.7734375,212.890625,-35.15625,-0.06597344572538566,-0.029321531433504737,-0.04520402762665313,-1232,-1687,-1234,3872,311,100652
12:18:40.150,17528,965.8203125,211.9140625,-43.9453125,-0.048869219055841226,-0.007330382858376184,-0.048869219055841226,-1232,-1687,-1234,3872,311,100652
12:18:40.171,17529,980.46875,229.4921875,-43.9453125,-0.04398229715025711,0.0024434609527920616,-0.03054326190990077,-1232,-1687,-1234,3872,311,100652
12:18:40.181,17530,989.2578125,228.515625,-40.0390625,-0.03543018381548489,-0.014660765716752368,-0.025656340004316647,-1232,-1687,-1234,3872,311,100652
12:18:40.221,17531,994.140625,223.6328125,-36.1328125,-0.07208209810736582,-0.006108652381980153,-0.03787364476827696,-1226,-1684,-1244,3872,311,100652
12:18:40.242,17532,994.140625,229.4921875,-42.96875,-0.12095131716320705,-0.008552113334772215,-0.06475171524898964,-1226,-1684,-1244,3872,311,100652
12:18:40.252,17533,991.2109375,229.4921875,-52.734375,-0.13194689145077132,-0.012217304763960306,-0.06963863715457375,-1226,-1684,-1244,3872,311,100652
12:18:40.272,17534,994.140625,236.328125,-53.7109375,-0.10873401239924674,0.007330382858376184,-0.06108652381980154,-1226,-1684,-1244,3872,311,100652
12:18:40.293,17535,996.09375,239.2578125,-54.6875,-0.10629055144645469,-0.004886921905584123,-0.04398229715025711,-1226,-1684,-1244,3872,311,100652
12:18:40.313,17536,993.1640625,227.5390625,-44.921875,-0.10995574287564278,-0.0024434609527920616,-0.06475171524898964,-1230,-1684,-1241,3872,311,100652
12:18:40.333,17537,991.2109375,230.46875,-53.7109375,-0.1356120828799594,-0.0024434609527920616,-0.08918632477691024,-1230,-1684,-1241,3872,311,100652
12:18:40.364,17538,983.3984375,230.46875,-60.546875,-0.1356120828799594,0.003665191429188092,-0.09773843811168245,-1230,-1684,-1241,3872,311,100652
12:18:40.384,17539,984.375,225.5859375,-59.5703125,-0.11362093430483088,0.003665191429188092,-0.0830776723949301,-1230,-1684,-1241,3872,311,100652
12:18:40.404,17540,988.28125,225.5859375,-60.546875,-0.08552113334772216,0.0024434609527920616,-0.0635299847725936,-1230,-1684,-1241,3872,311,100652
12:18:40.424,17541,990.234375,232.421875,-58.59375,-0.08918632477691024,0.0012217304763960308,-0.05619960191421742,-1233,-1677,-1251,3872,311,100652
12:18:40.434,17542,989.2578125,225.5859375,-60.546875,-0.08185594191853407,-0.021991148575128554,-0.06597344572538566,-1233,-1677,-1251,3872,311,100652
12:18:40.455,17543,993.1640625,230.46875,-63.4765625,-0.1075122819228507,-0.04031710572106901,-0.07819075048934597,-1233,-1677,-1251,3872,311,100652
12:18:40.475,17544,998.046875,223.6328125,-63.4765625,-0.14172073526193957,-0.03543018381548489,-0.09651670763528641,-1233,-1677,-1251,3872,311,100652
12:18:40.495,17545,994.140625,230.46875,-58.59375,-0.15760323145508798,-0.05375614096142535,-0.0867428638241182,-1233,-1673,-1254,3872,311,100652
12:18:40.516,17546,991.2109375,231.4453125,-58.59375,-0.1502728485967118,-0.058643062867009474,-0.09285151620609834,-1233,-1673,-1254,3872,311,100652
12:18:40.526,17547,991.2109375,232.421875,-56.640625,-0.1466076571675237,-0.07696902001294993,-0.08796459430051422,-1233,-1673,-1254,3872,311,100652
12:18:40.546,17548,986.328125,222.65625,-58.59375,-0.15149457907310784,-0.06963863715457375,-0.09651670763528641,-1233,-1673,-1254,3872,311,100652
12:18:40.566,17549,982.421875,228.515625,-72.265625,-0.1270599695451872,-0.07696902001294993,-0.07086036763096978,-1233,-1673,-1254,3872,311,100652
12:18:40.587,17550,989.2578125,218.75,-60.546875,-0.1111774733520388,-0.0867428638241182,-0.0671951762017817,-1231,-1680,-1252,3872,311,100652
12:18:40.597,17551,994.140625,249.0234375,-45.8984375,-0.13683381335635544,-0.08063421144213802,-0.03543018381548489,-1231,-1680,-1252,3872,311,100652
12:18:40.638,17552,986.328125,235.3515625,-31.25,-0.15271630954950383,-0.06597344572538566,-0.024434609527920613,-1231,-1680,-1252,3872,311,100652
12:18:40.659,17553,991.2109375,240.234375,-29.296875,-0.1466076571675237,-0.07330382858376185,-0.04153883619746505,-1231,-1680,-1252,3872,311,100652
12:18:40.679,17554,986.328125,238.28125,-30.2734375,-0.12217304763960309,-0.08185594191853407,-0.05619960191421742,-1231,-1680,-1252,3872,311,100652
12:18:40.689,17555,985.3515625,233.3984375,-38.0859375,-0.12583823906879116,-0.09285151620609834,-0.0476474885794452,-1237,-1674,-1251,3872,311,100652
12:18:40.709,17556,985.3515625,241.2109375,-38.0859375,-0.13805554383275148,-0.09162978572970232,-0.02809980095710871,-1237,-1674,-1251,3872,311,100652
12:18:40.730,17557,984.375,241.2109375,-37.109375,-0.11728612573401895,-0.07819075048934597,-0.014660765716752368,-1237,-1674,-1251,3872,311,100652
12:18:40.750,17558,987.3046875,243.1640625,-35.15625,-0.10506882097005865,-0.06841690667817772,-0.023212879051524585,-1237,-1674,-1251,3872,311,100652
12:18:40.781,17559,994.140625,249.0234375,-34.1796875,-0.12461650859239513,-0.06230825429619757,-0.052534410485029326,-1235,-1676,-1253,3872,311,100652
12:18:40.801,17560,989.2578125,237.3046875,-44.921875,-0.11728612573401895,-0.06108652381980154,-0.06597344572538566,-1235,-1676,-1253,3872,311,100652
12:18:40.821,17561,989.2578125,240.234375,-41.015625,-0.1307251609743753,-0.07330382858376185,-0.052534410485029326,-1235,-1676,-1253,3872,311,100652
12:18:40.842,17562,985.3515625,235.3515625,-47.8515625,-0.12217304763960309,-0.07208209810736582,-0.03420845333908886,-1235,-1676,-1253,3872,311,100652
12:18:40.852,17563,976.5625,243.1640625,-46.875,-0.10140362954087055,-0.07574728953655392,-0.02809980095710871,-1235,-1676,-1253,3872,311,100652
12:18:40.873,17564,986.328125,247.0703125,-43.9453125,-0.10140362954087055,-0.06963863715457375,-0.025656340004316647,-1236,-1678,-1267,3872,311,100652
12:18:40.893,17565,990.234375,245.1171875,-41.9921875,-0.0952949771588904,-0.0635299847725936,-0.04520402762665313,-1236,-1678,-1267,3872,311,100652
12:18:40.914,17566,989.2578125,236.328125,-41.9921875,-0.12095131716320705,-0.06230825429619757,-0.058643062867009474,-1236,-1678,-1267,3872,311,100652
12:18:40.935,17567,988.28125,235.3515625,-49.8046875,-0.13805554383275148,-0.07086036763096978,-0.051312680008633295,-1236,-1678,-1267,3872,311,100652
12:18:40.944,17568,986.328125,236.328125,-53.7109375,-0.14049900478554353,-0.07452555906015788,-0.03543018381548489,-1236,-1678,-1267,3872,311,100652
12:18:40.965,17569,989.2578125,238.28125,-42.96875,-0.10506882097005865,-0.08796459430051422,-0.012217304763960306,-1232,-1674,-1278,3872,311,100652
12:18:40.985,17570,982.421875,237.3046875,-41.015625,-0.08552113334772216,-0.09162978572970232,-0.020769418098732523,-1232,-1674,-1278,3872,311,100652
12:18:41.6,17571,984.375,237.3046875,-45.8984375,-0.08552113334772216,-0.08185594191853407,-0.03543018381548489,-1232,-1674,-1278,3872,311,100652
12:18:41.16,17572,987.3046875,234.375,-47.8515625,-0.09651670763528641,-0.06963863715457375,-0.026878070480712675,-1232,-1674,-1278,3872,311,100652
12:18:41.57,17573,988.28125,237.3046875,-43.9453125,-0.09040805525330627,-0.07330382858376185,-0.014660765716752368,-1235,-1670,-1259,3872,311,100652
12:18:41.78,17574,985.3515625,239.2578125,-41.9921875,-0.0952949771588904,-0.07452555906015788,0.0024434609527920616,-1235,-1670,-1259,3872,311,100652
12:18:41.98,17575,988.28125,239.2578125,-43.9453125,-0.09407324668249437,-0.08063421144213802,-0.0158824961931484,-1235,-1670,-1259,3872,311,100652
12:18:41.109,17576,990.234375,245.1171875,-40.0390625,-0.08796459430051422,-0.08063421144213802,-0.0158824961931484,-1235,-1670,-1259,3872,311,100652
12:18:41.129,17577,983.3984375,243.1640625,-50.78125,-0.0830776723949301,-0.07819075048934597,-0.025656340004316647,-1235,-1670,-1259,3878,311,100646
12:18:41.149,17578,988.28125,240.234375,-50.78125,-0.09651670763528641,-0.07452555906015788,-0.021991148575128554,-1234,-1675,-1245,3878,311,100646
12:18:41.170,17579,988.28125,241.2109375,-41.9921875,-0.09651670763528641,-0.07574728953655392,-0.019547687622336492,-1234,-1675,-1245,3878,311,100646
12:18:41.200,17580,986.328125,247.0703125,-41.9921875,-0.09162978572970232,-0.08185594191853407,-0.01832595714594046,-1234,-1675,-1245,3878,311,100646
12:18:41.220,17581,989.2578125,233.3984375,-40.0390625,-0.09651670763528641,-0.0830776723949301,-0.039095375244672985,-1234,-1675,-1245,3878,311,100646
12:18:41.241,17582,988.28125,241.2109375,-39.0625,-0.1148426647812269,-0.07208209810736582,-0.03298672286269283,-1234,-1675,-1245,3878,311,100646
12:18:41.261,17583,981.4453125,244.140625,-46.875,-0.10140362954087055,-0.06841690667817772,-0.010995574287564277,-1232,-1677,-1260,3878,311,100646
12:18:41.271,17584,980.46875,239.2578125,-37.109375,-0.0830776723949301,-0.07086036763096978,-0.021991148575128554,-1232,-1677,-1260,3878,311,100646
12:18:41.292,17585,987.3046875,230.46875,-41.9921875,-0.08552113334772216,-0.06841690667817772,-0.048869219055841226,-1232,-1677,-1260,3878,311,100646
12:18:41.312,17586,986.328125,221.6796875,-49.8046875,-0.1233947781159991,-0.06963863715457375,-0.05619960191421742,-1232,-1677,-1260,3878,311,100646
12:18:41.333,17587,978.515625,234.375,-46.875,-0.1356120828799594,-0.08063421144213802,-0.026878070480712675,-1232,-1668,-1249,3878,311,100646
12:18:41.353,17588,978.515625,236.328125,-42.96875,-0.10262536001726659,-0.08552113334772216,-0.014660765716752368,-1232,-1668,-1249,3878,311,100646
12:18:41.363,17589,978.515625,240.234375,-37.109375,-0.08429940287132612,-0.06841690667817772,-0.021991148575128554,-1232,-1668,-1249,3878,311,100646
12:18:41.384,17590,983.3984375,238.28125,-35.15625,-0.07330382858376185,-0.06597344572538566,-0.03543018381548489,-1232,-1668,-1249,3878,311,100646
12:18:41.404,17591,982.421875,223.6328125,-40.0390625,-0.0989601685880785,-0.06963863715457375,-0.051312680008633295,-1232,-1668,-1249,3878,311,100646
12:18:41.425,17592,993.1640625,234.375,-35.15625,-0.14172073526193957,-0.06475171524898964,-0.039095375244672985,-1235,-1668,-1252,3878,311,100646
12:18:41.435,17593,995.1171875,239.2578125,-28.3203125,-0.1307251609743753,-0.07819075048934597,-0.013439035240356337,-1235,-1668,-1252,3878,311,100646
12:18:41.475,17594,982.421875,248.046875,-29.296875,-0.09651670763528641,-0.07086036763096978,-0.01710422666954443,-1235,-1668,-1252,3878,311,100646
12:18:41.496,17595,979.4921875,231.4453125,-38.0859375,-0.11850785621041499,-0.06230825429619757,-0.03787364476827696,-1235,-1668,-1252,3878,311,100646
12:18:41.516,17596,982.421875,240.234375,-35.15625,-0.1307251609743753,-0.04276056667386108,-0.048869219055841226,-1235,-1668,-1252,3878,311,100646
12:18:41.527,17597,987.3046875,244.140625,-39.0625,-0.12095131716320705,-0.03298672286269283,-0.0317649923862968,-1232,-1674,-1260,3878,311,100646
12:18:41.547,17598,984.375,237.3046875,-45.8984375,-0.0830776723949301,-0.02809980095710871,-0.03054326190990077,-1232,-1674,-1260,3878,311,100646
12:18:41.568,17599,988.28125,231.4453125,-45.8984375,-0.09285151620609834,-0.039095375244672985,-0.024434609527920613,-1232,-1674,-1260,3878,311,100646
12:18:41.588,17600,985.3515625,236.328125,-45.8984375,-0.11606439525762292,-0.048869219055841226,-0.021991148575128554,-1232,-1674,-1260,3878,311,100646
12:18:41.619,17601,987.3046875,245.1171875,-46.875,-0.10262536001726659,-0.0476474885794452,-0.025656340004316647,-1232,-1674,-1260,3878,311,100646
12:18:41.640,17602,985.3515625,237.3046875,-51.7578125,-0.08429940287132612,-0.029321531433504737,-0.05742133239061345,-1234,-1671,-1254,3878,311,100646
12:18:41.660,17603,982.421875,233.3984375,-56.640625,-0.08918632477691024,-0.0317649923862968,-0.052534410485029326,-1234,-1671,-1254,3878,311,100646
12:18:41.681,17604,987.3046875,239.2578125,-56.640625,-0.1038470904936626,-0.04276056667386108,-0.04276056667386108,-1234,-1671,-1254,3878,311,100646
12:18:41.691,17605,994.140625,239.2578125,-53.7109375,-0.10140362954087055,-0.06597344572538566,-0.020769418098732523,-1234,-1671,-1254,3878,311,100646
12:18:41.712,17606,992.1875,237.3046875,-53.7109375,-0.10262536001726659,-0.07574728953655392,-0.03787364476827696,-1234,-1669,-1251,3878,311,100646
12:18:41.732,17607,988.28125,238.28125,-52.734375,-0.10140362954087055,-0.07330382858376185,-0.04153883619746505,-1234,-1669,-1251,3878,311,100646
12:18:41.753,17608,987.3046875,238.28125,-51.7578125,-0.1111774733520388,-0.06963863715457375,-0.05009094953223726,-1234,-1669,-1251,3878,311,100646
12:18:41.763,17609,984.375,237.3046875,-46.875,-0.0952949771588904,-0.07086036763096978,-0.04153883619746505,-1234,-1669,-1251,3878,311,100646
12:18:41.783,17610,983.3984375,232.421875,-46.875,-0.09407324668249437,-0.06597344572538566,-0.03420845333908886,-1234,-1669,-1251,3878,311,100646
12:18:41.804,17611,986.328125,222.65625,-42.96875,-0.10140362954087055,-0.07208209810736582,-0.04520402762665313,-1238,-1674,-1273,3878,311,100646
12:18:41.824,17612,988.28125,230.46875,-43.9453125,-0.10629055144645469,-0.0867428638241182,-0.020769418098732523,-1238,-1674,-1273,3878,311,100646
12:18:41.845,17613,987.3046875,236.328125,-39.0625,-0.0989601685880785,-0.0952949771588904,-0.0024434609527920616,-1238,-1674,-1273,3878,311,100646
12:18:41.855,17614,987.3046875,236.328125,-32.2265625,-0.07086036763096978,-0.08185594191853407,-0.0012217304763960308,-1238,-1674,-1273,3878,311,100646
12:18:41.896,17615,990.234375,227.5390625,-38.0859375,-0.0830776723949301,-0.06963863715457375,-0.0158824961931484,-1238,-1674,-1273,3878,311,100646
12:18:41.916,17616,981.4453125,223.6328125,-39.0625,-0.09285151620609834,-0.0635299847725936,-0.026878070480712675,-1236,-1670,-1263,3878,311,100646
12:18:41.936,17617,979.4921875,232.421875,-32.2265625,-0.08918632477691024,-0.05009094953223726,-0.01832595714594046,-1236,-1670,-1263,3878,311,100646
12:18:41.947,17618,978.515625,235.3515625,-38.0859375,-0.06230825429619757,-0.05497787143782139,0.0012217304763960308,-1236,-1670,-1263,3878,311,100646
12:18:41.967,17619,979.4921875,231.4453125,-34.1796875,-0.058643062867009474,-0.0671951762017817,0.009773843811168246,-1236,-1670,-1263,3878,311,100646
12:18:41.987,17620,985.3515625,229.4921875,-41.015625,-0.06841690667817772,-0.05619960191421742,0.0012217304763960308,-1232,-1670,-1262,3878,311,100646
12:18:42.8,17621,990.234375,232.421875,-39.0625,-0.08185594191853407,-0.04153883619746505,-0.0158824961931484,-1232,-1670,-1262,3878,311,100646
12:18:42.38,17622,995.1171875,233.3984375,-35.15625,-0.10018189906447451,-0.051312680008633295,-0.012217304763960306,-1232,-1670,-1262,3878,311,100646
12:18:42.59,17623,993.1640625,232.421875,-36.1328125,-0.10140362954087055,-0.048869219055841226,-0.019547687622336492,-1232,-1670,-1262,3878,311,100646
12:18:42.79,17624,989.2578125,230.46875,-35.15625,-0.1038470904936626,-0.052534410485029326,-0.013439035240356337,-1232,-1670,-1262,3878,311,100646
12:18:42.99,17625,983.3984375,233.3984375,-40.0390625,-0.10018189906447451,-0.051312680008633295,-0.010995574287564277,-1230,-1677,-1253,3878,311,100646
12:18:42.110,17626,983.3984375,237.3046875,-36.1328125,-0.10140362954087055,-0.05497787143782139,-0.004886921905584123,-1230,-1677,-1253,3878,311,100646
12:18:42.130,17627,986.328125,235.3515625,-41.015625,-0.06230825429619757,-0.048869219055841226,-0.006108652381980153,-1230,-1677,-1253,3878,311,100645
12:18:42.151,17628,989.2578125,226.5625,-43.9453125,-0.07452555906015788,-0.04031710572106901,-0.026878070480712675,-1230,-1677,-1253,3878,311,100645
12:18:42.171,17629,991.2109375,232.421875,-41.9921875,-0.0867428638241182,-0.04031710572106901,-0.01832595714594046,-1230,-1677,-1253,3878,311,100645
12:18:42.191,17630,995.1171875,240.234375,-41.015625,-0.09285151620609834,-0.048869219055841226,-0.0012217304763960308,-1234,-1673,-1252,3878,311,100645
12:18:42.201,17631,992.1875,233.3984375,-40.0390625,-0.08063421144213802,-0.06108652381980154,-0.006108652381980153,-1234,-1673,-1252,3878,311,100645
12:18:42.222,17632,984.375,233.3984375,-44.921875,-0.1038470904936626,-0.05375614096142535,-0.03665191429188092,-1234,-1673,-1252,3878,311,100645
12:18:42.242,17633,985.3515625,235.3515625,-50.78125,-0.1111774733520388,-0.04398229715025711,-0.03420845333908886,-1234,-1673,-1252,3878,311,100645
12:18:42.262,17634,987.3046875,237.3046875,-43.9453125,-0.0952949771588904,-0.03787364476827696,-0.04642575810304917,-1235,-1679,-1257,3878,311,100645
12:18:42.283,17635,983.3984375,232.421875,-44.921875,-0.08552113334772216,-0.05986479334340551,-0.05375614096142535,-1235,-1679,-1257,3878,311,100645
12:18:42.313,17636,982.421875,238.28125,-45.8984375,-0.10140362954087055,-0.05009094953223726,-0.07819075048934597,-1235,-1679,-1257,3878,311,100645
12:18:42.334,17637,989.2578125,246.09375,-50.78125,-0.12828170002158323,-0.0635299847725936,-0.10140362954087055,-1235,-1679,-1257,3878,311,100645
12:18:42.354,17638,985.3515625,236.328125,-39.0625,-0.1551597705022959,-0.05742133239061345,-0.12583823906879116,-1235,-1679,-1257,3878,311,100645
12:18:42.364,17639,989.2578125,238.28125,-47.8515625,-0.17715091907742447,-0.06230825429619757,-0.1148426647812269,-1231,-1672,-1258,3878,311,100645
12:18:42.385,17640,997.0703125,233.3984375,-42.96875,-0.1661553447898602,-0.08063421144213802,-0.06841690667817772,-1231,-1672,-1258,3878,311,100645
12:18:42.405,17641,993.1640625,237.3046875,-40.0390625,-0.13194689145077132,-0.0989601685880785,-0.03054326190990077,-1231,-1672,-1258,3878,311,100645
12:18:42.426,17642,981.4453125,227.5390625,-39.0625,-0.0989601685880785,-0.11606439525762292,-0.03543018381548489,-1231,-1672,-1258,3878,311,100645
12:18:42.457,17643,984.375,230.46875,-39.0625,-0.12095131716320705,-0.09285151620609834,-0.052534410485029326,-1231,-1672,-1258,3878,311,100645
12:18:42.478,17644,983.3984375,226.5625,-42.96875,-0.12828170002158323,-0.07208209810736582,-0.07574728953655392,-1227,-1669,-1256,3878,311,100645
12:18:42.498,17645,989.2578125,225.5859375,-38.0859375,-0.10995574287564278,-0.06475171524898964,-0.06841690667817772,-1227,-1669,-1256,3878,311,100645
12:18:42.519,17646,990.234375,223.6328125,-41.015625,-0.07696902001294993,-0.06108652381980154,-0.05009094953223726,-1227,-1669,-1256,3878,311,100645
12:18:42.529,17647,987.3046875,215.8203125,-39.0625,-0.05986479334340551,-0.08063421144213802,-0.04276056667386108,-1227,-1669,-1256,3878,311,100645
12:18:42.549,17648,985.3515625,221.6796875,-38.0859375,-0.07574728953655392,-0.07696902001294993,-0.026878070480712675,-1232,-1673,-1260,3878,311,100645
12:18:42.570,17649,981.4453125,215.8203125,-40.0390625,-0.0989601685880785,-0.09040805525330627,-0.009773843811168246,-1232,-1673,-1260,3878,311,100645
12:18:42.611,17650,989.2578125,224.609375,-36.1328125,-0.1038470904936626,-0.06597344572538566,-0.013439035240356337,-1232,-1673,-1260,3878,311,100645
12:18:42.621,17651,986.328125,221.6796875,-37.109375,-0.10873401239924674,-0.06108652381980154,-0.0158824961931484,-1232,-1673,-1260,3878,311,100645
12:18:42.642,17652,990.234375,238.28125,-39.0625,-0.08429940287132612,-0.05375614096142535,-0.019547687622336492,-1232,-1673,-1260,3878,311,100645
12:18:42.662,17653,991.2109375,233.3984375,-36.1328125,-0.06475171524898964,-0.06963863715457375,-0.0158824961931484,-1235,-1672,-1252,3878,311,100645
12:18:42.682,17654,988.28125,213.8671875,-41.9921875,-0.10140362954087055,-0.06475171524898964,-0.023212879051524585,-1235,-1672,-1252,3878,311,100645
12:18:42.693,17655,987.3046875,229.4921875,-39.0625,-0.12095131716320705,-0.07696902001294993,-0.020769418098732523,-1235,-1672,-1252,3878,311,100645
12:18:42.713,17656,985.3515625,239.2578125,-34.1796875,-0.10629055144645469,-0.06475171524898964,-0.007330382858376184,-1235,-1672,-1252,3878,311,100645
12:18:42.733,17657,987.3046875,236.328125,-40.0390625,-0.07086036763096978,-0.05986479334340551,-0.0024434609527920616,-1235,-1672,-1252,3878,311,100645
12:18:42.754,17658,981.4453125,232.421875,-41.015625,-0.07941248096574201,-0.05986479334340551,-0.010995574287564277,-1226,-1666,-1267,3878,311,100645
12:18:42.774,17659,979.4921875,238.28125,-41.015625,-0.08796459430051422,-0.06230825429619757,-0.01710422666954443,-1226,-1666,-1267,3878,311,100645
12:18:42.784,17660,984.375,236.328125,-43.9453125,-0.0867428638241182,-0.05009094953223726,-0.0158824961931484,-1226,-1666,-1267,3878,311,100645
12:18:42.804,17661,988.28125,242.1875,-45.8984375,-0.10995574287564278,-0.06597344572538566,-0.029321531433504737,-1226,-1666,-1267,3878,311,100645
